workerid,proliferate.condition,choices,concept,correct,definition,failed_audio,failed_images,failed_video,img,internal_node_id,name,response,rt,seed,solution,stimulus,success,time_elapsed,timeout,trial_index,trial_type,view_history,error
23,CB14,,,,,[],[],[],,0.0-0.0,,,,0.784584732,,,TRUE,878,FALSE,0,preload,,
23,CB14,,,,,,,,,0.0-1.0,,,59366,0.784584732,,,,60245,,1,instructions,"[{'page_index': 0, 'viewing_time': 59366}]",
23,CB14,,,,,,,,,0.0-2.0,,,27930,0.784584732,,,,88177,,2,instructions,"[{'page_index': 0, 'viewing_time': 2226}, {'page_index': 1, 'viewing_time': 4584}, {'page_index': 2, 'viewing_time': 12209}, {'page_index': 3, 'viewing_time': 8911}]",
23,CB14,"['No', 'Yes']",concept_tll,TRUE,a triangle with two straight lines extending out of one of its corners,,,,geoclidean\constraints\concept_tll\test\out_close_1_fin.png,0.0-3.0-0.0,uvs,0,7783,0.784584732,No,"<p style=""max-width: 60%;margin-left: auto; margin-right: auto;""><b>Definition:</b><br>A 'uvs' is: a triangle with two straight lines extending out of one of its corners<br><b>Question:</b><br> Is the image below a 'uvs'? <br></p><img src='geoclidean\constraints\concept_tll\test\out_close_1_fin.png' height='300px'>",,95963,,3,html-button-response,,
23,CB14,"['No', 'Yes']",concept_cccl,FALSE,"Three intersecting circles. Among their points of intersection, one point is shared by all three circles. Additionally, one of the circles contains a line whose endpoints are on the circle's border.",,,,geoclidean\constraints\concept_cccl\test\out_close_4_fin.png,0.0-3.0-0.1,nuk,1,18409,0.784584732,No,"<p style=""max-width: 60%;margin-left: auto; margin-right: auto;""><b>Definition:</b><br>A 'nuk' is: Three intersecting circles. Among their points of intersection, one point is shared by all three circles. Additionally, one of the circles contains a line whose endpoints are on the circle's border.<br><b>Question:</b><br> Is the image below a 'nuk'? <br></p><img src='geoclidean\constraints\concept_cccl\test\out_close_4_fin.png' height='300px'>",,114375,,4,html-button-response,,
23,CB14,"['No', 'Yes']",concept_llt,TRUE,"A triangle, as well as two additional straight lines that intersect at one of its corners.",,,,geoclidean\constraints\concept_llt\test\out_far_5_fin.png,0.0-3.0-0.2,xip,0,9073,0.784584732,No,"<p style=""max-width: 60%;margin-left: auto; margin-right: auto;""><b>Definition:</b><br>A 'xip' is: A triangle, as well as two additional straight lines that intersect at one of its corners.<br><b>Question:</b><br> Is the image below a 'xip'? <br></p><img src='geoclidean\constraints\concept_llt\test\out_far_5_fin.png' height='300px'>",,123451,,5,html-button-response,,
23,CB14,"['No', 'Yes']",concept_angle,FALSE,An angle formed between two lines.,,,,geoclidean\elements\concept_angle\test\out_far_5_fin.png,0.0-3.0-0.3,jeg,1,7708,0.784584732,No,"<p style=""max-width: 60%;margin-left: auto; margin-right: auto;""><b>Definition:</b><br>A 'jeg' is: An angle formed between two lines.<br><b>Question:</b><br> Is the image below a 'jeg'? <br></p><img src='geoclidean\elements\concept_angle\test\out_far_5_fin.png' height='300px'>",,131161,,6,html-button-response,,
23,CB14,"['No', 'Yes']",concept_quadrilateral,TRUE,A four-sided closed shape.,,,,geoclidean\elements\concept_quadrilateral\test\in_4_fin.png,0.0-3.0-0.4,honv,1,7407,0.784584732,Yes,"<p style=""max-width: 60%;margin-left: auto; margin-right: auto;""><b>Definition:</b><br>A 'honv' is: A four-sided closed shape.<br><b>Question:</b><br> Is the image below a 'honv'? <br></p><img src='geoclidean\elements\concept_quadrilateral\test\in_4_fin.png' height='300px'>",,138571,,7,html-button-response,,
23,CB14,"['No', 'Yes']",concept_lllc,TRUE,"Two lines that either extend or pass through the center of a circle, and a third line that extends from one of the two lines.",,,,geoclidean\constraints\concept_lllc\test\out_far_5_fin.png,0.0-3.0-0.5,vop,0,16552,0.784584732,No,"<p style=""max-width: 60%;margin-left: auto; margin-right: auto;""><b>Definition:</b><br>A 'vop' is: Two lines that either extend or pass through the center of a circle, and a third line that extends from one of the two lines.<br><b>Question:</b><br> Is the image below a 'vop'? <br></p><img src='geoclidean\constraints\concept_lllc\test\out_far_5_fin.png' height='300px'>",,155125,,8,html-button-response,,
23,CB14,"['No', 'Yes']",concept_parallel_l,TRUE,Parallel lines.,,,,geoclidean\elements\concept_parallel_l\test\in_2_fin.png,0.0-3.0-0.6,kab,1,2749,0.784584732,Yes,"<p style=""max-width: 60%;margin-left: auto; margin-right: auto;""><b>Definition:</b><br>A 'kab' is: Parallel lines.<br><b>Question:</b><br> Is the image below a 'kab'? <br></p><img src='geoclidean\elements\concept_parallel_l\test\in_2_fin.png' height='300px'>",,157877,,9,html-button-response,,
23,CB14,"['No', 'Yes']",concept_oblong,TRUE,A rectangle.,,,,geoclidean\elements\concept_oblong\test\out_far_2_fin.png,0.0-3.0-0.7,zup,0,1880,0.784584732,No,"<p style=""max-width: 60%;margin-left: auto; margin-right: auto;""><b>Definition:</b><br>A 'zup' is: A rectangle.<br><b>Question:</b><br> Is the image below a 'zup'? <br></p><img src='geoclidean\elements\concept_oblong\test\out_far_2_fin.png' height='300px'>",,159759,,10,html-button-response,,
23,CB14,"['No', 'Yes']",concept_right_ang_t,TRUE,A triangle with a 90 degree angle.,,,,geoclidean\elements\concept_right_ang_t\test\in_1_fin.png,0.0-3.0-0.8,hix,1,3621,0.784584732,Yes,"<p style=""max-width: 60%;margin-left: auto; margin-right: auto;""><b>Definition:</b><br>A 'hix' is: A triangle with a 90 degree angle.<br><b>Question:</b><br> Is the image below a 'hix'? <br></p><img src='geoclidean\elements\concept_right_ang_t\test\in_1_fin.png' height='300px'>",,163381,,11,html-button-response,,
23,CB14,"['No', 'Yes']",concept_cct,TRUE,"Two intersecting circles. Additionally, there is a triangle with two corners located at the intersection points between the circles and a third corner on one of the circles' border.",,,,geoclidean\constraints\concept_cct\test\in_3_fin.png,0.0-3.0-0.9,wex,1,38982,0.784584732,Yes,"<p style=""max-width: 60%;margin-left: auto; margin-right: auto;""><b>Definition:</b><br>A 'wex' is: Two intersecting circles. Additionally, there is a triangle with two corners located at the intersection points between the circles and a third corner on one of the circles' border.<br><b>Question:</b><br> Is the image below a 'wex'? <br></p><img src='geoclidean\constraints\concept_cct\test\in_3_fin.png' height='300px'>",,202369,,12,html-button-response,,
23,CB14,"['No', 'Yes']",concept_radii,FALSE,A circle and 3 straight lines extending from the center of the circle to its border.,,,,geoclidean\elements\concept_radii\test\out_close_5_fin.png,0.0-3.0-0.10,hol,1,12271,0.784584732,No,"<p style=""max-width: 60%;margin-left: auto; margin-right: auto;""><b>Definition:</b><br>A 'hol' is: A circle and 3 straight lines extending from the center of the circle to its border.<br><b>Question:</b><br> Is the image below a 'hol'? <br></p><img src='geoclidean\elements\concept_radii\test\out_close_5_fin.png' height='300px'>",,214642,,13,html-button-response,,
23,CB14,"['No', 'Yes']",concept_clcl,TRUE,Two circles and two straight lines. One straight line extends from an intersection point between the circles to a circle's border. Another line extends from one circle's border to another circle's border.,,,,geoclidean\constraints\concept_clcl\test\out_close_1_fin.png,0.0-3.0-0.11,tep,0,18493,0.784584732,No,"<p style=""max-width: 60%;margin-left: auto; margin-right: auto;""><b>Definition:</b><br>A 'tep' is: Two circles and two straight lines. One straight line extends from an intersection point between the circles to a circle's border. Another line extends from one circle's border to another circle's border.<br><b>Question:</b><br> Is the image below a 'tep'? <br></p><img src='geoclidean\constraints\concept_clcl\test\out_close_1_fin.png' height='300px'>",,233138,,14,html-button-response,,
23,CB14,"['No', 'Yes']",concept_triangle,FALSE,A triangle.,,,,geoclidean\elements\concept_triangle\test\out_far_2_fin.png,0.0-3.0-0.12,wunf,1,5734,0.784584732,No,"<p style=""max-width: 60%;margin-left: auto; margin-right: auto;""><b>Definition:</b><br>A 'wunf' is: A triangle.<br><b>Question:</b><br> Is the image below a 'wunf'? <br></p><img src='geoclidean\elements\concept_triangle\test\out_far_2_fin.png' height='300px'>",,238875,,15,html-button-response,,
23,CB14,"['No', 'Yes']",concept_sixty_ang,TRUE,A sixty degree angle formed between two equal-length straight lines.,,,,geoclidean\elements\concept_sixty_ang\test\out_close_3_fin.png,0.0-3.0-0.13,fep,0,12787,0.784584732,No,"<p style=""max-width: 60%;margin-left: auto; margin-right: auto;""><b>Definition:</b><br>A 'fep' is: A sixty degree angle formed between two equal-length straight lines.<br><b>Question:</b><br> Is the image below a 'fep'? <br></p><img src='geoclidean\elements\concept_sixty_ang\test\out_close_3_fin.png' height='300px'>",,251665,,16,html-button-response,,
23,CB14,"['No', 'Yes']",concept_ccl,TRUE,"Two intersecting circles. Additionally, a straight line that extends from one of the intersection points between the circles to one of the circles' border.",,,,geoclidean\constraints\concept_ccl\test\out_close_2_fin.png,0.0-3.0-0.14,pif,0,15536,0.784584732,No,"<p style=""max-width: 60%;margin-left: auto; margin-right: auto;""><b>Definition:</b><br>A 'pif' is: Two intersecting circles. Additionally, a straight line that extends from one of the intersection points between the circles to one of the circles' border.<br><b>Question:</b><br> Is the image below a 'pif'? <br></p><img src='geoclidean\constraints\concept_ccl\test\out_close_2_fin.png' height='300px'>",,267204,,17,html-button-response,,
23,CB14,"['No', 'Yes']",concept_rectilinear,TRUE,A closed shape composed of straight lines.,,,,geoclidean\elements\concept_rectilinear\test\out_close_1_fin.png,0.0-3.0-0.15,dlep,0,8715,0.784584732,No,"<p style=""max-width: 60%;margin-left: auto; margin-right: auto;""><b>Definition:</b><br>A 'dlep' is: A closed shape composed of straight lines.<br><b>Question:</b><br> Is the image below a 'dlep'? <br></p><img src='geoclidean\elements\concept_rectilinear\test\out_close_1_fin.png' height='300px'>",,275921,,18,html-button-response,,
23,CB14,"['No', 'Yes']",concept_rhomboid,TRUE,A four-sided shape with two pairs of parallel sides.,,,,geoclidean\elements\concept_rhomboid\test\in_3_fin.png,0.0-3.0-0.16,drex,1,5231,0.784584732,Yes,"<p style=""max-width: 60%;margin-left: auto; margin-right: auto;""><b>Definition:</b><br>A 'drex' is: A four-sided shape with two pairs of parallel sides.<br><b>Question:</b><br> Is the image below a 'drex'? <br></p><img src='geoclidean\elements\concept_rhomboid\test\in_3_fin.png' height='300px'>",,281154,,19,html-button-response,,
23,CB14,"['No', 'Yes']",concept_llc,TRUE,A circle and two lines that meet. One of the lines extends from the circle's border and the other line passes through the circle's center.,,,,geoclidean\constraints\concept_llc\test\out_far_1_fin.png,0.0-3.0-0.17,bliv,0,54451,0.784584732,No,"<p style=""max-width: 60%;margin-left: auto; margin-right: auto;""><b>Definition:</b><br>A 'bliv' is: A circle and two lines that meet. One of the lines extends from the circle's border and the other line passes through the circle's center.<br><b>Question:</b><br> Is the image below a 'bliv'? <br></p><img src='geoclidean\constraints\concept_llc\test\out_far_1_fin.png' height='300px'>",,335607,,20,html-button-response,,
23,CB14,"['No', 'Yes']",concept_lcc,TRUE,"Two circles that intersect at a single point. One of the circles contains the other. Additionally, a straight line passes through both of the circles' centers.",,,,geoclidean\constraints\concept_lcc\test\out_close_5_fin.png,0.0-3.0-0.18,mox,0,16886,0.784584732,No,"<p style=""max-width: 60%;margin-left: auto; margin-right: auto;""><b>Definition:</b><br>A 'mox' is: Two circles that intersect at a single point. One of the circles contains the other. Additionally, a straight line passes through both of the circles' centers.<br><b>Question:</b><br> Is the image below a 'mox'? <br></p><img src='geoclidean\constraints\concept_lcc\test\out_close_5_fin.png' height='300px'>",,352496,,21,html-button-response,,
23,CB14,"['No', 'Yes']",concept_llcc,TRUE,Two circles and two lines that all intersect at a single location.,,,,geoclidean\constraints\concept_llcc\test\in_5_fin.png,0.0-3.0-0.19,muxl,1,8504,0.784584732,Yes,"<p style=""max-width: 60%;margin-left: auto; margin-right: auto;""><b>Definition:</b><br>A 'muxl' is: Two circles and two lines that all intersect at a single location.<br><b>Question:</b><br> Is the image below a 'muxl'? <br></p><img src='geoclidean\constraints\concept_llcc\test\in_5_fin.png' height='300px'>",,361002,,22,html-button-response,,
23,CB14,"['No', 'Yes']",concept_clt,TRUE,"A circle containing a triangle whose corners are all on the circle's border. Additionally, a straight line extends from one of the triangle's corners.",,,,geoclidean\constraints\concept_clt\test\out_close_1_fin.png,0.0-3.0-0.20,fom,0,19492,0.784584732,No,"<p style=""max-width: 60%;margin-left: auto; margin-right: auto;""><b>Definition:</b><br>A 'fom' is: A circle containing a triangle whose corners are all on the circle's border. Additionally, a straight line extends from one of the triangle's corners.<br><b>Question:</b><br> Is the image below a 'fom'? <br></p><img src='geoclidean\constraints\concept_clt\test\out_close_1_fin.png' height='300px'>",,380495,,23,html-button-response,,
23,CB14,"['No', 'Yes']",concept_segment,TRUE,A circle and a straight line connecting two points on the circle's border.,,,,geoclidean\elements\concept_segment\test\in_4_fin.png,0.0-3.0-0.21,vix,1,4401,0.784584732,Yes,"<p style=""max-width: 60%;margin-left: auto; margin-right: auto;""><b>Definition:</b><br>A 'vix' is: A circle and a straight line connecting two points on the circle's border.<br><b>Question:</b><br> Is the image below a 'vix'? <br></p><img src='geoclidean\elements\concept_segment\test\in_4_fin.png' height='300px'>",,384898,,24,html-button-response,,
23,CB14,"['No', 'Yes']",concept_clll,TRUE,A circle and three lines. Line 1 extends from the circle's border. Line 2 extends from line 1. Line 3 extends from line 2 to the intersection point between the circle and line 1.,,,,geoclidean\constraints\concept_clll\test\in_4_fin.png,0.0-3.0-0.22,zim,1,13782,0.784584732,Yes,"<p style=""max-width: 60%;margin-left: auto; margin-right: auto;""><b>Definition:</b><br>A 'zim' is: A circle and three lines. Line 1 extends from the circle's border. Line 2 extends from line 1. Line 3 extends from line 2 to the intersection point between the circle and line 1.<br><b>Question:</b><br> Is the image below a 'zim'? <br></p><img src='geoclidean\constraints\concept_clll\test\in_4_fin.png' height='300px'>",,398683,,25,html-button-response,,
23,CB14,"['No', 'Yes']",concept_ccc,FALSE,"Three intersecting circles. Among their points of intersection, one point is shared by all three circles.",,,,geoclidean\constraints\concept_ccc\test\out_far_4_fin.png,0.0-3.0-0.23,krev,1,14159,0.784584732,No,"<p style=""max-width: 60%;margin-left: auto; margin-right: auto;""><b>Definition:</b><br>A 'krev' is: Three intersecting circles. Among their points of intersection, one point is shared by all three circles.<br><b>Question:</b><br> Is the image below a 'krev'? <br></p><img src='geoclidean\constraints\concept_ccc\test\out_far_4_fin.png' height='300px'>",,412843,,26,html-button-response,,
23,CB14,"['No', 'Yes']",concept_eq_t,TRUE,A triangle with all of its sides having the same length.,,,,geoclidean\elements\concept_eq_t\test\out_close_2_fin.png,0.0-3.0-0.24,yulf,0,46898,0.784584732,No,"<p style=""max-width: 60%;margin-left: auto; margin-right: auto;""><b>Definition:</b><br>A 'yulf' is: A triangle with all of its sides having the same length.<br><b>Question:</b><br> Is the image below a 'yulf'? <br></p><img src='geoclidean\elements\concept_eq_t\test\out_close_2_fin.png' height='300px'>",,459744,,27,html-button-response,,
23,CB14,"['No', 'Yes']",concept_tcc,TRUE,"Two circles that have the same center, one completely inside the other. Additionally, a triangle with a corner located at the center of the circles.",,,,geoclidean\constraints\concept_tcc\test\out_far_1_fin.png,0.0-3.0-0.25,dax,0,30470,0.784584732,No,"<p style=""max-width: 60%;margin-left: auto; margin-right: auto;""><b>Definition:</b><br>A 'dax' is: Two circles that have the same center, one completely inside the other. Additionally, a triangle with a corner located at the center of the circles.<br><b>Question:</b><br> Is the image below a 'dax'? <br></p><img src='geoclidean\constraints\concept_tcc\test\out_far_1_fin.png' height='300px'>",,490217,,28,html-button-response,,
23,CB14,"['No', 'Yes']",concept_tcl,TRUE,"A triangle with one of its corners located at the center of a circle. Additionally, a line extends from the triangle's corner located at the center of a circle to the side of the triangle that faces it.",,,,geoclidean\constraints\concept_tcl\test\out_close_1_fin.png,0.0-3.0-0.26,wuj,0,17907,0.784584732,No,"<p style=""max-width: 60%;margin-left: auto; margin-right: auto;""><b>Definition:</b><br>A 'wuj' is: A triangle with one of its corners located at the center of a circle. Additionally, a line extends from the triangle's corner located at the center of a circle to the side of the triangle that faces it.<br><b>Question:</b><br> Is the image below a 'wuj'? <br></p><img src='geoclidean\constraints\concept_tcl\test\out_close_1_fin.png' height='300px'>",,508126,,29,html-button-response,,
23,CB14,"['No', 'Yes']",concept_llll,TRUE,Four straight lines that intersect at a single point.,,,,geoclidean\constraints\concept_llll\test\out_close_4_fin.png,0.0-3.0-0.27,jeex,0,10080,0.784584732,No,"<p style=""max-width: 60%;margin-left: auto; margin-right: auto;""><b>Definition:</b><br>A 'jeex' is: Four straight lines that intersect at a single point.<br><b>Question:</b><br> Is the image below a 'jeex'? <br></p><img src='geoclidean\constraints\concept_llll\test\out_close_4_fin.png' height='300px'>",,518208,,30,html-button-response,,
23,CB14,"['No', 'Yes']",concept_diameter,TRUE,A circle and a straight line that passes through the center of the circle and whose endpoints are on the circle's border.,,,,geoclidean\elements\concept_diameter\test\in_2_fin.png,0.0-3.0-0.28,nif,1,4758,0.784584732,Yes,"<p style=""max-width: 60%;margin-left: auto; margin-right: auto;""><b>Definition:</b><br>A 'nif' is: A circle and a straight line that passes through the center of the circle and whose endpoints are on the circle's border.<br><b>Question:</b><br> Is the image below a 'nif'? <br></p><img src='geoclidean\elements\concept_diameter\test\in_2_fin.png' height='300px'>",,522969,,31,html-button-response,,
23,CB14,"['No', 'Yes']",concept_ang_bisector,TRUE,A line that divides an angle into two equal parts.,,,,geoclidean\elements\concept_ang_bisector\test\out_close_4_fin.png,0.0-3.0-0.29,lem,0,3305,0.784584732,No,"<p style=""max-width: 60%;margin-left: auto; margin-right: auto;""><b>Definition:</b><br>A 'lem' is: A line that divides an angle into two equal parts.<br><b>Question:</b><br> Is the image below a 'lem'? <br></p><img src='geoclidean\elements\concept_ang_bisector\test\out_close_4_fin.png' height='300px'>",,526276,,32,html-button-response,,
23,CB14,"['No', 'Yes']",concept_cccc,TRUE,"Four intersecting circles. Among their points of intersection, one point is shared by all four circles.",,,,geoclidean\constraints\concept_cccc\test\out_close_2_fin.png,0.0-3.0-0.30,frolp,0,25028,0.784584732,No,"<p style=""max-width: 60%;margin-left: auto; margin-right: auto;""><b>Definition:</b><br>A 'frolp' is: Four intersecting circles. Among their points of intersection, one point is shared by all four circles.<br><b>Question:</b><br> Is the image below a 'frolp'? <br></p><img src='geoclidean\constraints\concept_cccc\test\out_close_2_fin.png' height='300px'>",,551305,,33,html-button-response,,
23,CB14,"['No', 'Yes']",concept_perp_bisector,TRUE,Two line segments that intersect at a 90 degree angle and are cut into two equal parts.,,,,geoclidean\elements\concept_perp_bisector\test\in_1_fin.png,0.0-3.0-0.31,bim,1,3660,0.784584732,Yes,"<p style=""max-width: 60%;margin-left: auto; margin-right: auto;""><b>Definition:</b><br>A 'bim' is: Two line segments that intersect at a 90 degree angle and are cut into two equal parts.<br><b>Question:</b><br> Is the image below a 'bim'? <br></p><img src='geoclidean\elements\concept_perp_bisector\test\in_1_fin.png' height='300px'>",,554967,,34,html-button-response,,
23,CB14,"['No', 'Yes']",concept_cll,TRUE,A circle containing two lines. Each of the lines extends from one point on the circle's border to another point on the circle's border.,,,,geoclidean\constraints\concept_cll\test\in_4_fin.png,0.0-3.0-0.32,jaf,1,3516,0.784584732,Yes,"<p style=""max-width: 60%;margin-left: auto; margin-right: auto;""><b>Definition:</b><br>A 'jaf' is: A circle containing two lines. Each of the lines extends from one point on the circle's border to another point on the circle's border.<br><b>Question:</b><br> Is the image below a 'jaf'? <br></p><img src='geoclidean\constraints\concept_cll\test\in_4_fin.png' height='300px'>",,558485,,35,html-button-response,,
23,CB14,"['No', 'Yes']",concept_clcc,TRUE,A circle that contains a straight line whose endpoints are on the border of that circle. Two other circles that intersect with the first circle.,,,,geoclidean\constraints\concept_clcc\test\in_5_fin.png,0.0-3.0-0.33,vov,1,31834,0.784584732,Yes,"<p style=""max-width: 60%;margin-left: auto; margin-right: auto;""><b>Definition:</b><br>A 'vov' is: A circle that contains a straight line whose endpoints are on the border of that circle. Two other circles that intersect with the first circle.<br><b>Question:</b><br> Is the image below a 'vov'? <br></p><img src='geoclidean\constraints\concept_clcc\test\in_5_fin.png' height='300px'>",,590321,,36,html-button-response,,
23,CB14,"['No', 'Yes']",concept_square,TRUE,A square.,,,,geoclidean\elements\concept_square\test\out_close_3_fin.png,0.0-3.0-0.34,zyl,0,1768,0.784584732,No,"<p style=""max-width: 60%;margin-left: auto; margin-right: auto;""><b>Definition:</b><br>A 'zyl' is: A square.<br><b>Question:</b><br> Is the image below a 'zyl'? <br></p><img src='geoclidean\elements\concept_square\test\out_close_3_fin.png' height='300px'>",,592092,,37,html-button-response,,
23,CB14,"['No', 'Yes']",concept_rhombus,TRUE,A four-sided shape with all sides having the same length.,,,,geoclidean\elements\concept_rhombus\test\in_5_fin.png,0.0-3.0-0.35,bvep,1,3183,0.784584732,Yes,"<p style=""max-width: 60%;margin-left: auto; margin-right: auto;""><b>Definition:</b><br>A 'bvep' is: A four-sided shape with all sides having the same length.<br><b>Question:</b><br> Is the image below a 'bvep'? <br></p><img src='geoclidean\elements\concept_rhombus\test\in_5_fin.png' height='300px'>",,595278,,38,html-button-response,,
23,CB14,"['No', 'Yes']",concept_lll,TRUE,A straight line with two other straight lines extending from it.,,,,geoclidean\constraints\concept_lll\test\out_far_3_fin.png,0.0-3.0-0.36,qiv,0,10237,0.784584732,No,"<p style=""max-width: 60%;margin-left: auto; margin-right: auto;""><b>Definition:</b><br>A 'qiv' is: A straight line with two other straight lines extending from it.<br><b>Question:</b><br> Is the image below a 'qiv'? <br></p><img src='geoclidean\constraints\concept_lll\test\out_far_3_fin.png' height='300px'>",,605517,,39,html-button-response,,
23,CB14,,,,,,,,,0.0-4.0,,,6681,0.784584732,,,,612200,,40,instructions,"[{'page_index': 0, 'viewing_time': 6681}]",
8,CB11,,,,,[],[],[],,0.0-0.0,,,,0.878635726,,,TRUE,1829,FALSE,0,preload,,
8,CB11,,,,,,,,,0.0-1.0,,,840137,0.878635726,,,,841986,,1,instructions,"[{'page_index': 0, 'viewing_time': 2348}, {'page_index': 1, 'viewing_time': 47377}, {'page_index': 2, 'viewing_time': 789488}, {'page_index': 3, 'viewing_time': 923}]",
8,CB11,"['Yes', 'No']",concept_clt,TRUE,,,,,geoclidean\constraints\concept_clt\test\out_far_3_fin.png,0.0-2.0-0.0,bim,1,12162,0.878635726,No,"<p style=""max-width: 60%;margin-left: auto; margin-right: auto;""><b>Definition:</b><br>A 'bim' is: A circle containing a triangle whose corners are all on the circle's circumference. Additionally, a straight line extends from one of the triangle's corners.<br><b>Question:</b><br> Is the image below a 'bim'? <br></p><img src='geoclidean\constraints\concept_clt\test\out_far_3_fin.png' height='300px'>",,854151,,2,html-button-response,,
8,CB11,"['Yes', 'No']",concept_oblong,TRUE,,,,,geoclidean\elements\concept_oblong\test\out_far_3_fin.png,0.0-2.0-0.1,hix,1,1834,0.878635726,No,"<p style=""max-width: 60%;margin-left: auto; margin-right: auto;""><b>Definition:</b><br>A 'hix' is: A rectangle.<br><b>Question:</b><br> Is the image below a 'hix'? <br></p><img src='geoclidean\elements\concept_oblong\test\out_far_3_fin.png' height='300px'>",,855987,,3,html-button-response,,
8,CB11,"['Yes', 'No']",concept_angle,TRUE,,,,,geoclidean\elements\concept_angle\test\out_close_2_fin.png,0.0-2.0-0.2,dlep,1,4579,0.878635726,No,"<p style=""max-width: 60%;margin-left: auto; margin-right: auto;""><b>Definition:</b><br>A 'dlep' is: An angle formed between two lines.<br><b>Question:</b><br> Is the image below a 'dlep'? <br></p><img src='geoclidean\elements\concept_angle\test\out_close_2_fin.png' height='300px'>",,860569,,4,html-button-response,,
8,CB11,"['Yes', 'No']",concept_tcl,FALSE,,,,,geoclidean\constraints\concept_tcl\test\in_3_fin.png,0.0-2.0-0.3,nuk,1,12597,0.878635726,Yes,"<p style=""max-width: 60%;margin-left: auto; margin-right: auto;""><b>Definition:</b><br>A 'nuk' is: A triangle with two straight lines extending out of one of its corners.<br><b>Question:</b><br> Is the image below a 'nuk'? <br></p><img src='geoclidean\constraints\concept_tcl\test\in_3_fin.png' height='300px'>",,873168,,5,html-button-response,,
8,CB11,"['Yes', 'No']",concept_cccc,TRUE,,,,,geoclidean\constraints\concept_cccc\test\in_5_fin.png,0.0-2.0-0.4,tep,0,45018,0.878635726,Yes,"<p style=""max-width: 60%;margin-left: auto; margin-right: auto;""><b>Definition:</b><br>A 'tep' is: Four intersecting circles. Among their points of intersection, one point is shared by all four circles.<br><b>Question:</b><br> Is the image below a 'tep'? <br></p><img src='geoclidean\constraints\concept_cccc\test\in_5_fin.png' height='300px'>",,918189,,6,html-button-response,,
8,CB11,"['Yes', 'No']",concept_cct,TRUE,,,,,geoclidean\constraints\concept_cct\test\in_1_fin.png,0.0-2.0-0.5,jaf,0,31095,0.878635726,Yes,"<p style=""max-width: 60%;margin-left: auto; margin-right: auto;""><b>Definition:</b><br>A 'jaf' is: Two intersecting circles. Additionally, there is a triangle with two corners located at the intersection points between the circles and a third corner on one of the circles' circumference.<br><b>Question:</b><br> Is the image below a 'jaf'? <br></p><img src='geoclidean\constraints\concept_cct\test\in_1_fin.png' height='300px'>",,949288,,7,html-button-response,,
8,CB11,"['Yes', 'No']",concept_cccl,TRUE,,,,,geoclidean\constraints\concept_cccl\test\out_far_1_fin.png,0.0-2.0-0.6,qiv,1,24250,0.878635726,No,"<p style=""max-width: 60%;margin-left: auto; margin-right: auto;""><b>Definition:</b><br>A 'qiv' is: Three intersecting circles. Among their points of intersection, one point is shared by all three circles. Additionally, one of the circles contains a line whose endpoints are on the circle's circumference.<br><b>Question:</b><br> Is the image below a 'qiv'? <br></p><img src='geoclidean\constraints\concept_cccl\test\out_far_1_fin.png' height='300px'>",,973514,,8,html-button-response,,
8,CB11,"['Yes', 'No']",concept_llcc,TRUE,,,,,geoclidean\constraints\concept_llcc\test\out_close_1_fin.png,0.0-2.0-0.7,zim,1,4192,0.878635726,No,"<p style=""max-width: 60%;margin-left: auto; margin-right: auto;""><b>Definition:</b><br>A 'zim' is: Two circles and two lines that all intersect at the same location.<br><b>Question:</b><br> Is the image below a 'zim'? <br></p><img src='geoclidean\constraints\concept_llcc\test\out_close_1_fin.png' height='300px'>",,977705,,9,html-button-response,,
8,CB11,"['Yes', 'No']",concept_quadrilateral,TRUE,,,,,geoclidean\elements\concept_quadrilateral\test\out_close_1_fin.png,0.0-2.0-0.8,zup,1,2952,0.878635726,No,"<p style=""max-width: 60%;margin-left: auto; margin-right: auto;""><b>Definition:</b><br>A 'zup' is: A quadrilateral.<br><b>Question:</b><br> Is the image below a 'zup'? <br></p><img src='geoclidean\elements\concept_quadrilateral\test\out_close_1_fin.png' height='300px'>",,980658,,10,html-button-response,,
8,CB11,"['Yes', 'No']",concept_square,TRUE,,,,,geoclidean\elements\concept_square\test\in_2_fin.png,0.0-2.0-0.9,vix,0,1342,0.878635726,Yes,"<p style=""max-width: 60%;margin-left: auto; margin-right: auto;""><b>Definition:</b><br>A 'vix' is: A square.<br><b>Question:</b><br> Is the image below a 'vix'? <br></p><img src='geoclidean\elements\concept_square\test\in_2_fin.png' height='300px'>",,982000,,11,html-button-response,,
8,CB11,"['Yes', 'No']",concept_parallel_l,TRUE,,,,,geoclidean\elements\concept_parallel_l\test\in_5_fin.png,0.0-2.0-0.10,frolp,0,2539,0.878635726,Yes,"<p style=""max-width: 60%;margin-left: auto; margin-right: auto;""><b>Definition:</b><br>A 'frolp' is: Parallel lines.<br><b>Question:</b><br> Is the image below a 'frolp'? <br></p><img src='geoclidean\elements\concept_parallel_l\test\in_5_fin.png' height='300px'>",,984540,,12,html-button-response,,
8,CB11,"['Yes', 'No']",concept_lll,TRUE,,,,,geoclidean\constraints\concept_lll\test\out_far_5_fin.png,0.0-2.0-0.11,wuj,1,3930,0.878635726,No,"<p style=""max-width: 60%;margin-left: auto; margin-right: auto;""><b>Definition:</b><br>A 'wuj' is: A straight line with two other straight lines extending from it.<br><b>Question:</b><br> Is the image below a 'wuj'? <br></p><img src='geoclidean\constraints\concept_lll\test\out_far_5_fin.png' height='300px'>",,988471,,13,html-button-response,,
8,CB11,"['Yes', 'No']",concept_diameter,TRUE,,,,,geoclidean\elements\concept_diameter\test\in_3_fin.png,0.0-2.0-0.12,mox,0,2806,0.878635726,Yes,"<p style=""max-width: 60%;margin-left: auto; margin-right: auto;""><b>Definition:</b><br>A 'mox' is: A circle and the diameter of the circle.<br><b>Question:</b><br> Is the image below a 'mox'? <br></p><img src='geoclidean\elements\concept_diameter\test\in_3_fin.png' height='300px'>",,991278,,14,html-button-response,,
8,CB11,"['Yes', 'No']",concept_perp_bisector,TRUE,,,,,geoclidean\elements\concept_perp_bisector\test\out_far_3_fin.png,0.0-2.0-0.13,lem,1,2321,0.878635726,No,"<p style=""max-width: 60%;margin-left: auto; margin-right: auto;""><b>Definition:</b><br>A 'lem' is: Two line segments that intersect at a 90 degree angle and are cut into two equal parts.<br><b>Question:</b><br> Is the image below a 'lem'? <br></p><img src='geoclidean\elements\concept_perp_bisector\test\out_far_3_fin.png' height='300px'>",,993601,,15,html-button-response,,
8,CB11,"['Yes', 'No']",concept_lllc,FALSE,,,,,geoclidean\constraints\concept_lllc\test\in_5_fin.png,0.0-2.0-0.14,yulf,1,6828,0.878635726,Yes,"<p style=""max-width: 60%;margin-left: auto; margin-right: auto;""><b>Definition:</b><br>A 'yulf' is: Two lines extending or passing through the center of a circle, and a third line that extends from one of the two lines.<br><b>Question:</b><br> Is the image below a 'yulf'? <br></p><img src='geoclidean\constraints\concept_lllc\test\in_5_fin.png' height='300px'>",,1000430,,16,html-button-response,,
8,CB11,"['Yes', 'No']",concept_clcl,TRUE,,,,,geoclidean\constraints\concept_clcl\test\out_close_4_fin.png,0.0-2.0-0.15,fep,1,11990,0.878635726,No,"<p style=""max-width: 60%;margin-left: auto; margin-right: auto;""><b>Definition:</b><br>A 'fep' is: Two circles and two straight lines. One straight line extends from an intersection point between the circles to a circle's circumference. Another line extends from one circle's circumference to another circle's circumference.<br><b>Question:</b><br> Is the image below a 'fep'? <br></p><img src='geoclidean\constraints\concept_clcl\test\out_close_4_fin.png' height='300px'>",,1012421,,17,html-button-response,,
8,CB11,"['Yes', 'No']",concept_triangle,TRUE,,,,,geoclidean\elements\concept_triangle\test\out_far_4_fin.png,0.0-2.0-0.16,uvs,1,1341,0.878635726,No,"<p style=""max-width: 60%;margin-left: auto; margin-right: auto;""><b>Definition:</b><br>A 'uvs' is: A triangle.<br><b>Question:</b><br> Is the image below a 'uvs'? <br></p><img src='geoclidean\elements\concept_triangle\test\out_far_4_fin.png' height='300px'>",,1013764,,18,html-button-response,,
8,CB11,"['Yes', 'No']",concept_sixty_ang,TRUE,,,,,geoclidean\elements\concept_sixty_ang\test\out_close_5_fin.png,0.0-2.0-0.17,bliv,1,3121,0.878635726,No,"<p style=""max-width: 60%;margin-left: auto; margin-right: auto;""><b>Definition:</b><br>A 'bliv' is: A sixty degree angle formed between two equal-length straight lines.<br><b>Question:</b><br> Is the image below a 'bliv'? <br></p><img src='geoclidean\elements\concept_sixty_ang\test\out_close_5_fin.png' height='300px'>",,1016887,,19,html-button-response,,
8,CB11,"['Yes', 'No']",concept_segment,TRUE,,,,,geoclidean\elements\concept_segment\test\out_close_1_fin.png,0.0-2.0-0.18,dax,1,85765,0.878635726,No,"<p style=""max-width: 60%;margin-left: auto; margin-right: auto;""><b>Definition:</b><br>A 'dax' is: A circle and a straight line connecting two points on the circle's circumference.<br><b>Question:</b><br> Is the image below a 'dax'? <br></p><img src='geoclidean\elements\concept_segment\test\out_close_1_fin.png' height='300px'>",,1102655,,20,html-button-response,,
8,CB11,"['Yes', 'No']",concept_ccl,TRUE,,,,,geoclidean\constraints\concept_ccl\test\out_far_3_fin.png,0.0-2.0-0.19,fom,1,5906,0.878635726,No,"<p style=""max-width: 60%;margin-left: auto; margin-right: auto;""><b>Definition:</b><br>A 'fom' is: Two intersecting circles. Additionally, a straight line that extends from one of the intersection points between the circles to one of the circles' circumference.<br><b>Question:</b><br> Is the image below a 'fom'? <br></p><img src='geoclidean\constraints\concept_ccl\test\out_far_3_fin.png' height='300px'>",,1108562,,21,html-button-response,,
8,CB11,"['Yes', 'No']",concept_llll,TRUE,,,,,geoclidean\constraints\concept_llll\test\out_close_3_fin.png,0.0-2.0-0.20,vop,1,4547,0.878635726,No,"<p style=""max-width: 60%;margin-left: auto; margin-right: auto;""><b>Definition:</b><br>A 'vop' is: Four straight lines that intersect at a single point.<br><b>Question:</b><br> Is the image below a 'vop'? <br></p><img src='geoclidean\constraints\concept_llll\test\out_close_3_fin.png' height='300px'>",,1113111,,22,html-button-response,,
8,CB11,"['Yes', 'No']",concept_llt,TRUE,,,,,geoclidean\constraints\concept_llt\test\out_close_4_fin.png,0.0-2.0-0.21,krev,1,7392,0.878635726,No,"<p style=""max-width: 60%;margin-left: auto; margin-right: auto;""><b>Definition:</b><br>A 'krev' is: A triangle and two straight lines that intersect at one of its corners.<br><b>Question:</b><br> Is the image below a 'krev'? <br></p><img src='geoclidean\constraints\concept_llt\test\out_close_4_fin.png' height='300px'>",,1120506,,23,html-button-response,,
8,CB11,"['Yes', 'No']",concept_eq_t,TRUE,,,,,geoclidean\elements\concept_eq_t\test\out_far_3_fin.png,0.0-2.0-0.22,wunf,1,2790,0.878635726,No,"<p style=""max-width: 60%;margin-left: auto; margin-right: auto;""><b>Definition:</b><br>A 'wunf' is: An equilateral triangle.<br><b>Question:</b><br> Is the image below a 'wunf'? <br></p><img src='geoclidean\elements\concept_eq_t\test\out_far_3_fin.png' height='300px'>",,1123298,,24,html-button-response,,
8,CB11,"['Yes', 'No']",concept_ccc,TRUE,,,,,geoclidean\constraints\concept_ccc\test\out_far_1_fin.png,0.0-2.0-0.23,hol,1,4569,0.878635726,No,"<p style=""max-width: 60%;margin-left: auto; margin-right: auto;""><b>Definition:</b><br>A 'hol' is: Three intersecting circles. Among their points of intersection, one point is shared by all three circles.<br><b>Question:</b><br> Is the image below a 'hol'? <br></p><img src='geoclidean\constraints\concept_ccc\test\out_far_1_fin.png' height='300px'>",,1127869,,25,html-button-response,,
8,CB11,"['Yes', 'No']",concept_rhomboid,TRUE,,,,,geoclidean\elements\concept_rhomboid\test\out_far_1_fin.png,0.0-2.0-0.24,vov,1,2379,0.878635726,No,"<p style=""max-width: 60%;margin-left: auto; margin-right: auto;""><b>Definition:</b><br>A 'vov' is: A parallelogram.<br><b>Question:</b><br> Is the image below a 'vov'? <br></p><img src='geoclidean\elements\concept_rhomboid\test\out_far_1_fin.png' height='300px'>",,1130250,,26,html-button-response,,
8,CB11,"['Yes', 'No']",concept_clll,TRUE,,,,,geoclidean\constraints\concept_clll\test\in_1_fin.png,0.0-2.0-0.25,kab,0,67453,0.878635726,Yes,"<p style=""max-width: 60%;margin-left: auto; margin-right: auto;""><b>Definition:</b><br>A 'kab' is: A circle and three lines. Line 1 extends from the circle's circumference. Line 2 extends from line 1. Line 3 extends from line 2 to the intersection point between the circle and line 1.<br><b>Question:</b><br> Is the image below a 'kab'? <br></p><img src='geoclidean\constraints\concept_clll\test\in_1_fin.png' height='300px'>",,1197707,,27,html-button-response,,
8,CB11,"['Yes', 'No']",concept_rhombus,TRUE,,,,,geoclidean\elements\concept_rhombus\test\in_3_fin.png,0.0-2.0-0.26,honv,0,1524,0.878635726,Yes,"<p style=""max-width: 60%;margin-left: auto; margin-right: auto;""><b>Definition:</b><br>A 'honv' is: A rhombus.<br><b>Question:</b><br> Is the image below a 'honv'? <br></p><img src='geoclidean\elements\concept_rhombus\test\in_3_fin.png' height='300px'>",,1199235,,28,html-button-response,,
8,CB11,"['Yes', 'No']",concept_tll,TRUE,,,,,geoclidean\constraints\concept_tll\test\out_close_2_fin.png,0.0-2.0-0.27,xip,1,3323,0.878635726,No,"<p style=""max-width: 60%;margin-left: auto; margin-right: auto;""><b>Definition:</b><br>A 'xip' is: a triangle with two straight lines extending out of one of its corners<br><b>Question:</b><br> Is the image below a 'xip'? <br></p><img src='geoclidean\constraints\concept_tll\test\out_close_2_fin.png' height='300px'>",,1202561,,29,html-button-response,,
8,CB11,"['Yes', 'No']",concept_ang_bisector,TRUE,,,,,geoclidean\elements\concept_ang_bisector\test\out_close_5_fin.png,0.0-2.0-0.28,jeex,1,4413,0.878635726,No,"<p style=""max-width: 60%;margin-left: auto; margin-right: auto;""><b>Definition:</b><br>A 'jeex' is: A line that divides an angle into two equal parts.<br><b>Question:</b><br> Is the image below a 'jeex'? <br></p><img src='geoclidean\elements\concept_ang_bisector\test\out_close_5_fin.png' height='300px'>",,1206976,,30,html-button-response,,
8,CB11,"['Yes', 'No']",concept_radii,TRUE,,,,,geoclidean\elements\concept_radii\test\in_1_fin.png,0.0-2.0-0.29,nif,0,7249,0.878635726,Yes,"<p style=""max-width: 60%;margin-left: auto; margin-right: auto;""><b>Definition:</b><br>A 'nif' is: A circle and 3 straight lines extending from the center of the circle to its circumference.<br><b>Question:</b><br> Is the image below a 'nif'? <br></p><img src='geoclidean\elements\concept_radii\test\in_1_fin.png' height='300px'>",,1214227,,31,html-button-response,,
8,CB11,"['Yes', 'No']",concept_tcc,TRUE,,,,,geoclidean\constraints\concept_tcc\test\out_close_1_fin.png,0.0-2.0-0.30,muxl,1,19900,0.878635726,No,"<p style=""max-width: 60%;margin-left: auto; margin-right: auto;""><b>Definition:</b><br>A 'muxl' is: Two circles, one completely inside the other, and a triangle with a corner located at the center of the larger circle.<br><b>Question:</b><br> Is the image below a 'muxl'? <br></p><img src='geoclidean\constraints\concept_tcc\test\out_close_1_fin.png' height='300px'>",,1234129,,32,html-button-response,,
8,CB11,"['Yes', 'No']",concept_llc,TRUE,,,,,geoclidean\constraints\concept_llc\test\out_far_3_fin.png,0.0-2.0-0.31,pif,1,13287,0.878635726,No,"<p style=""max-width: 60%;margin-left: auto; margin-right: auto;""><b>Definition:</b><br>A 'pif' is: A circle and two intersecting lines, one line extends from the circle's circumference and another that passes through the circle's center.<br><b>Question:</b><br> Is the image below a 'pif'? <br></p><img src='geoclidean\constraints\concept_llc\test\out_far_3_fin.png' height='300px'>",,1247419,,33,html-button-response,,
8,CB11,"['Yes', 'No']",concept_clcc,TRUE,,,,,geoclidean\constraints\concept_clcc\test\out_close_4_fin.png,0.0-2.0-0.32,zyl,1,15524,0.878635726,No,"<p style=""max-width: 60%;margin-left: auto; margin-right: auto;""><b>Definition:</b><br>A 'zyl' is: A circle that contains a straight line whose endpoints are on the circumference of that circle. Two other circles that intersect with the first circle.<br><b>Question:</b><br> Is the image below a 'zyl'? <br></p><img src='geoclidean\constraints\concept_clcc\test\out_close_4_fin.png' height='300px'>",,1262946,,34,html-button-response,,
8,CB11,"['Yes', 'No']",concept_cll,TRUE,,,,,geoclidean\constraints\concept_cll\test\out_far_3_fin.png,0.0-2.0-0.33,wex,1,27453,0.878635726,No,"<p style=""max-width: 60%;margin-left: auto; margin-right: auto;""><b>Definition:</b><br>A 'wex' is: A circle containing two lines. Each of the lines extends from one point on the circle's circumference to another point on the circle's circumference.<br><b>Question:</b><br> Is the image below a 'wex'? <br></p><img src='geoclidean\constraints\concept_cll\test\out_far_3_fin.png' height='300px'>",,1290401,,35,html-button-response,,
8,CB11,"['Yes', 'No']",concept_lcc,TRUE,,,,,geoclidean\constraints\concept_lcc\test\out_far_5_fin.png,0.0-2.0-0.34,jeg,1,27216,0.878635726,No,"<p style=""max-width: 60%;margin-left: auto; margin-right: auto;""><b>Definition:</b><br>A 'jeg' is: Two circles that intersect at a single point. One of the circles contains the other. Additionally, a straight line passes through both of the circles' centers.<br><b>Question:</b><br> Is the image below a 'jeg'? <br></p><img src='geoclidean\constraints\concept_lcc\test\out_far_5_fin.png' height='300px'>",,1317619,,36,html-button-response,,
8,CB11,"['Yes', 'No']",concept_right_ang_t,TRUE,,,,,geoclidean\elements\concept_right_ang_t\test\out_close_5_fin.png,0.0-2.0-0.35,drex,1,2978,0.878635726,No,"<p style=""max-width: 60%;margin-left: auto; margin-right: auto;""><b>Definition:</b><br>A 'drex' is: A right-angled triangle.<br><b>Question:</b><br> Is the image below a 'drex'? <br></p><img src='geoclidean\elements\concept_right_ang_t\test\out_close_5_fin.png' height='300px'>",,1320598,,37,html-button-response,,
8,CB11,"['Yes', 'No']",concept_rectilinear,TRUE,,,,,geoclidean\elements\concept_rectilinear\test\out_far_3_fin.png,0.0-2.0-0.36,bvep,1,4016,0.878635726,No,"<p style=""max-width: 60%;margin-left: auto; margin-right: auto;""><b>Definition:</b><br>A 'bvep' is: A closed shape composed of straight lines.<br><b>Question:</b><br> Is the image below a 'bvep'? <br></p><img src='geoclidean\elements\concept_rectilinear\test\out_far_3_fin.png' height='300px'>",,1324616,,38,html-button-response,,
8,CB11,,,,,,,,,0.0-3.0,,,3153,0.878635726,,,,1327769,,39,instructions,"[{'page_index': 0, 'viewing_time': 3152}]",
26,CB3,,,,,[],[],[],,0.0-0.0,,,,0.962206093,,,TRUE,985,FALSE,0,preload,,
26,CB3,,,,,,,,,0.0-1.0,,,11345,0.962206093,,,,12330,,1,instructions,"[{'page_index': 0, 'viewing_time': 11345}]",
26,CB3,,,,,,,,,0.0-2.0,,,23056,0.962206093,,,,35387,,2,instructions,"[{'page_index': 0, 'viewing_time': 1755}, {'page_index': 1, 'viewing_time': 9333}, {'page_index': 2, 'viewing_time': 10286}, {'page_index': 3, 'viewing_time': 1682}]",
26,CB3,"['Yes', 'No']",concept_eq_t,TRUE,A triangle with all of its sides having the same length.,,,,geoclidean\elements\concept_eq_t\test\out_far_1_fin.png,0.0-3.0-0.0,fom,1,4641,0.962206093,No,"<p style=""max-width: 60%;margin-left: auto; margin-right: auto;""><b>Definition:</b><br>A 'fom' is: A triangle with all of its sides having the same length.<br><b>Question:</b><br> Is the image below a 'fom'? <br></p><img src='geoclidean\elements\concept_eq_t\test\out_far_1_fin.png' height='300px'>",,40031,,3,html-button-response,,
26,CB3,"['Yes', 'No']",concept_lllc,TRUE,"Two lines that either extend or pass through the center of a circle, and a third line that extends from one of the two lines.",,,,geoclidean\constraints\concept_lllc\test\out_far_3_fin.png,0.0-3.0-0.1,bim,1,12082,0.962206093,No,"<p style=""max-width: 60%;margin-left: auto; margin-right: auto;""><b>Definition:</b><br>A 'bim' is: Two lines that either extend or pass through the center of a circle, and a third line that extends from one of the two lines.<br><b>Question:</b><br> Is the image below a 'bim'? <br></p><img src='geoclidean\constraints\concept_lllc\test\out_far_3_fin.png' height='300px'>",,52114,,4,html-button-response,,
26,CB3,"['Yes', 'No']",concept_llcc,TRUE,Two circles and two lines that all intersect at a single location.,,,,geoclidean\constraints\concept_llcc\test\in_2_fin.png,0.0-3.0-0.2,vov,0,8104,0.962206093,Yes,"<p style=""max-width: 60%;margin-left: auto; margin-right: auto;""><b>Definition:</b><br>A 'vov' is: Two circles and two lines that all intersect at a single location.<br><b>Question:</b><br> Is the image below a 'vov'? <br></p><img src='geoclidean\constraints\concept_llcc\test\in_2_fin.png' height='300px'>",,60219,,5,html-button-response,,
26,CB3,"['Yes', 'No']",concept_ccl,TRUE,"Two intersecting circles. Additionally, a straight line that extends from one of the intersection points between the circles to one of the circles' border.",,,,geoclidean\constraints\concept_ccl\test\out_close_1_fin.png,0.0-3.0-0.3,hix,1,28702,0.962206093,No,"<p style=""max-width: 60%;margin-left: auto; margin-right: auto;""><b>Definition:</b><br>A 'hix' is: Two intersecting circles. Additionally, a straight line that extends from one of the intersection points between the circles to one of the circles' border.<br><b>Question:</b><br> Is the image below a 'hix'? <br></p><img src='geoclidean\constraints\concept_ccl\test\out_close_1_fin.png' height='300px'>",,88923,,6,html-button-response,,
26,CB3,"['Yes', 'No']",concept_cll,TRUE,A circle containing two lines. Each of the lines extends from one point on the circle's border to another point on the circle's border.,,,,geoclidean\constraints\concept_cll\test\in_1_fin.png,0.0-3.0-0.4,zim,0,7125,0.962206093,Yes,"<p style=""max-width: 60%;margin-left: auto; margin-right: auto;""><b>Definition:</b><br>A 'zim' is: A circle containing two lines. Each of the lines extends from one point on the circle's border to another point on the circle's border.<br><b>Question:</b><br> Is the image below a 'zim'? <br></p><img src='geoclidean\constraints\concept_cll\test\in_1_fin.png' height='300px'>",,96049,,7,html-button-response,,
26,CB3,"['Yes', 'No']",concept_cct,TRUE,"Two intersecting circles. Additionally, there is a triangle with two corners located at the intersection points between the circles and a third corner on one of the circles' border.",,,,geoclidean\constraints\concept_cct\test\in_4_fin.png,0.0-3.0-0.5,bliv,0,9140,0.962206093,Yes,"<p style=""max-width: 60%;margin-left: auto; margin-right: auto;""><b>Definition:</b><br>A 'bliv' is: Two intersecting circles. Additionally, there is a triangle with two corners located at the intersection points between the circles and a third corner on one of the circles' border.<br><b>Question:</b><br> Is the image below a 'bliv'? <br></p><img src='geoclidean\constraints\concept_cct\test\in_4_fin.png' height='300px'>",,105190,,8,html-button-response,,
26,CB3,"['Yes', 'No']",concept_ccc,TRUE,"Three intersecting circles. Among their points of intersection, one point is shared by all three circles.",,,,geoclidean\constraints\concept_ccc\test\out_close_2_fin.png,0.0-3.0-0.6,yulf,1,12881,0.962206093,No,"<p style=""max-width: 60%;margin-left: auto; margin-right: auto;""><b>Definition:</b><br>A 'yulf' is: Three intersecting circles. Among their points of intersection, one point is shared by all three circles.<br><b>Question:</b><br> Is the image below a 'yulf'? <br></p><img src='geoclidean\constraints\concept_ccc\test\out_close_2_fin.png' height='300px'>",,118072,,9,html-button-response,,
26,CB3,"['Yes', 'No']",concept_clll,FALSE,A circle and three lines. Line 1 extends from the circle's border. Line 2 extends from line 1. Line 3 extends from line 2 to the intersection point between the circle and line 1.,,,,geoclidean\constraints\concept_clll\test\in_3_fin.png,0.0-3.0-0.7,zup,1,23894,0.962206093,Yes,"<p style=""max-width: 60%;margin-left: auto; margin-right: auto;""><b>Definition:</b><br>A 'zup' is: A circle and three lines. Line 1 extends from the circle's border. Line 2 extends from line 1. Line 3 extends from line 2 to the intersection point between the circle and line 1.<br><b>Question:</b><br> Is the image below a 'zup'? <br></p><img src='geoclidean\constraints\concept_clll\test\in_3_fin.png' height='300px'>",,141968,,10,html-button-response,,
26,CB3,"['Yes', 'No']",concept_lll,TRUE,A straight line with two other straight lines extending from it.,,,,geoclidean\constraints\concept_lll\test\out_far_4_fin.png,0.0-3.0-0.8,honv,1,12238,0.962206093,No,"<p style=""max-width: 60%;margin-left: auto; margin-right: auto;""><b>Definition:</b><br>A 'honv' is: A straight line with two other straight lines extending from it.<br><b>Question:</b><br> Is the image below a 'honv'? <br></p><img src='geoclidean\constraints\concept_lll\test\out_far_4_fin.png' height='300px'>",,154207,,11,html-button-response,,
26,CB3,"['Yes', 'No']",concept_right_ang_t,TRUE,A triangle with a 90 degree angle.,,,,geoclidean\elements\concept_right_ang_t\test\out_close_3_fin.png,0.0-3.0-0.9,jaf,1,5926,0.962206093,No,"<p style=""max-width: 60%;margin-left: auto; margin-right: auto;""><b>Definition:</b><br>A 'jaf' is: A triangle with a 90 degree angle.<br><b>Question:</b><br> Is the image below a 'jaf'? <br></p><img src='geoclidean\elements\concept_right_ang_t\test\out_close_3_fin.png' height='300px'>",,160134,,12,html-button-response,,
26,CB3,"['Yes', 'No']",concept_diameter,TRUE,A circle and a straight line that passes through the center of the circle and whose endpoints are on the circle's border.,,,,geoclidean\elements\concept_diameter\test\out_far_1_fin.png,0.0-3.0-0.10,tep,1,5508,0.962206093,No,"<p style=""max-width: 60%;margin-left: auto; margin-right: auto;""><b>Definition:</b><br>A 'tep' is: A circle and a straight line that passes through the center of the circle and whose endpoints are on the circle's border.<br><b>Question:</b><br> Is the image below a 'tep'? <br></p><img src='geoclidean\elements\concept_diameter\test\out_far_1_fin.png' height='300px'>",,165643,,13,html-button-response,,
26,CB3,"['Yes', 'No']",concept_triangle,TRUE,A triangle.,,,,geoclidean\elements\concept_triangle\test\out_close_5_fin.png,0.0-3.0-0.11,bvep,1,5444,0.962206093,No,"<p style=""max-width: 60%;margin-left: auto; margin-right: auto;""><b>Definition:</b><br>A 'bvep' is: A triangle.<br><b>Question:</b><br> Is the image below a 'bvep'? <br></p><img src='geoclidean\elements\concept_triangle\test\out_close_5_fin.png' height='300px'>",,171088,,14,html-button-response,,
26,CB3,"['Yes', 'No']",concept_angle,FALSE,An angle formed between two lines.,,,,geoclidean\elements\concept_angle\test\in_5_fin.png,0.0-3.0-0.12,frolp,1,5905,0.962206093,Yes,"<p style=""max-width: 60%;margin-left: auto; margin-right: auto;""><b>Definition:</b><br>A 'frolp' is: An angle formed between two lines.<br><b>Question:</b><br> Is the image below a 'frolp'? <br></p><img src='geoclidean\elements\concept_angle\test\in_5_fin.png' height='300px'>",,176994,,15,html-button-response,,
26,CB3,"['Yes', 'No']",concept_square,TRUE,A square.,,,,geoclidean\elements\concept_square\test\out_far_2_fin.png,0.0-3.0-0.13,fep,1,2248,0.962206093,No,"<p style=""max-width: 60%;margin-left: auto; margin-right: auto;""><b>Definition:</b><br>A 'fep' is: A square.<br><b>Question:</b><br> Is the image below a 'fep'? <br></p><img src='geoclidean\elements\concept_square\test\out_far_2_fin.png' height='300px'>",,179243,,16,html-button-response,,
26,CB3,"['Yes', 'No']",concept_clcc,TRUE,A circle that contains a straight line whose endpoints are on the border of that circle. Two other circles that intersect with the first circle.,,,,geoclidean\constraints\concept_clcc\test\in_1_fin.png,0.0-3.0-0.14,jeex,0,14642,0.962206093,Yes,"<p style=""max-width: 60%;margin-left: auto; margin-right: auto;""><b>Definition:</b><br>A 'jeex' is: A circle that contains a straight line whose endpoints are on the border of that circle. Two other circles that intersect with the first circle.<br><b>Question:</b><br> Is the image below a 'jeex'? <br></p><img src='geoclidean\constraints\concept_clcc\test\in_1_fin.png' height='300px'>",,193887,,17,html-button-response,,
26,CB3,"['Yes', 'No']",concept_cccl,TRUE,"Three intersecting circles. Among their points of intersection, one point is shared by all three circles. Additionally, one of the circles contains a line whose endpoints are on the circle's border.",,,,geoclidean\constraints\concept_cccl\test\out_close_1_fin.png,0.0-3.0-0.15,wunf,1,15642,0.962206093,No,"<p style=""max-width: 60%;margin-left: auto; margin-right: auto;""><b>Definition:</b><br>A 'wunf' is: Three intersecting circles. Among their points of intersection, one point is shared by all three circles. Additionally, one of the circles contains a line whose endpoints are on the circle's border.<br><b>Question:</b><br> Is the image below a 'wunf'? <br></p><img src='geoclidean\constraints\concept_cccl\test\out_close_1_fin.png' height='300px'>",,209531,,18,html-button-response,,
26,CB3,"['Yes', 'No']",concept_tcc,TRUE,"Two circles that have the same center, one completely inside the other. Additionally, a triangle with a corner located at the center of the circles.",,,,geoclidean\constraints\concept_tcc\test\out_far_5_fin.png,0.0-3.0-0.16,vop,1,6688,0.962206093,No,"<p style=""max-width: 60%;margin-left: auto; margin-right: auto;""><b>Definition:</b><br>A 'vop' is: Two circles that have the same center, one completely inside the other. Additionally, a triangle with a corner located at the center of the circles.<br><b>Question:</b><br> Is the image below a 'vop'? <br></p><img src='geoclidean\constraints\concept_tcc\test\out_far_5_fin.png' height='300px'>",,216220,,19,html-button-response,,
26,CB3,"['Yes', 'No']",concept_rhombus,TRUE,A four-sided shape with all sides having the same length.,,,,geoclidean\elements\concept_rhombus\test\out_far_3_fin.png,0.0-3.0-0.17,nif,1,5334,0.962206093,No,"<p style=""max-width: 60%;margin-left: auto; margin-right: auto;""><b>Definition:</b><br>A 'nif' is: A four-sided shape with all sides having the same length.<br><b>Question:</b><br> Is the image below a 'nif'? <br></p><img src='geoclidean\elements\concept_rhombus\test\out_far_3_fin.png' height='300px'>",,221555,,20,html-button-response,,
26,CB3,"['Yes', 'No']",concept_rectilinear,TRUE,A closed shape composed of straight lines.,,,,geoclidean\elements\concept_rectilinear\test\out_far_2_fin.png,0.0-3.0-0.18,dax,1,4277,0.962206093,No,"<p style=""max-width: 60%;margin-left: auto; margin-right: auto;""><b>Definition:</b><br>A 'dax' is: A closed shape composed of straight lines.<br><b>Question:</b><br> Is the image below a 'dax'? <br></p><img src='geoclidean\elements\concept_rectilinear\test\out_far_2_fin.png' height='300px'>",,225833,,21,html-button-response,,
26,CB3,"['Yes', 'No']",concept_llt,TRUE,"A triangle, as well as two additional straight lines that intersect at one of its corners.",,,,geoclidean\constraints\concept_llt\test\in_3_fin.png,0.0-3.0-0.19,qiv,0,6539,0.962206093,Yes,"<p style=""max-width: 60%;margin-left: auto; margin-right: auto;""><b>Definition:</b><br>A 'qiv' is: A triangle, as well as two additional straight lines that intersect at one of its corners.<br><b>Question:</b><br> Is the image below a 'qiv'? <br></p><img src='geoclidean\constraints\concept_llt\test\in_3_fin.png' height='300px'>",,232373,,22,html-button-response,,
26,CB3,"['Yes', 'No']",concept_llll,TRUE,Four straight lines that intersect at a single point.,,,,geoclidean\constraints\concept_llll\test\out_far_3_fin.png,0.0-3.0-0.20,kab,1,4959,0.962206093,No,"<p style=""max-width: 60%;margin-left: auto; margin-right: auto;""><b>Definition:</b><br>A 'kab' is: Four straight lines that intersect at a single point.<br><b>Question:</b><br> Is the image below a 'kab'? <br></p><img src='geoclidean\constraints\concept_llll\test\out_far_3_fin.png' height='300px'>",,237333,,23,html-button-response,,
26,CB3,"['Yes', 'No']",concept_oblong,TRUE,A rectangle.,,,,geoclidean\elements\concept_oblong\test\out_far_1_fin.png,0.0-3.0-0.21,vix,1,2278,0.962206093,No,"<p style=""max-width: 60%;margin-left: auto; margin-right: auto;""><b>Definition:</b><br>A 'vix' is: A rectangle.<br><b>Question:</b><br> Is the image below a 'vix'? <br></p><img src='geoclidean\elements\concept_oblong\test\out_far_1_fin.png' height='300px'>",,239611,,24,html-button-response,,
26,CB3,"['Yes', 'No']",concept_segment,TRUE,A circle and a straight line connecting two points on the circle's border.,,,,geoclidean\elements\concept_segment\test\out_close_5_fin.png,0.0-3.0-0.22,nuk,1,8189,0.962206093,No,"<p style=""max-width: 60%;margin-left: auto; margin-right: auto;""><b>Definition:</b><br>A 'nuk' is: A circle and a straight line connecting two points on the circle's border.<br><b>Question:</b><br> Is the image below a 'nuk'? <br></p><img src='geoclidean\elements\concept_segment\test\out_close_5_fin.png' height='300px'>",,247801,,25,html-button-response,,
26,CB3,"['Yes', 'No']",concept_clt,TRUE,"A circle containing a triangle whose corners are all on the circle's border. Additionally, a straight line extends from one of the triangle's corners.",,,,geoclidean\constraints\concept_clt\test\out_far_4_fin.png,0.0-3.0-0.23,muxl,1,7580,0.962206093,No,"<p style=""max-width: 60%;margin-left: auto; margin-right: auto;""><b>Definition:</b><br>A 'muxl' is: A circle containing a triangle whose corners are all on the circle's border. Additionally, a straight line extends from one of the triangle's corners.<br><b>Question:</b><br> Is the image below a 'muxl'? <br></p><img src='geoclidean\constraints\concept_clt\test\out_far_4_fin.png' height='300px'>",,255381,,26,html-button-response,,
26,CB3,"['Yes', 'No']",concept_lcc,TRUE,"Two circles that intersect at a single point. One of the circles contains the other. Additionally, a straight line passes through both of the circles' centers.",,,,geoclidean\constraints\concept_lcc\test\out_far_1_fin.png,0.0-3.0-0.24,drex,1,5856,0.962206093,No,"<p style=""max-width: 60%;margin-left: auto; margin-right: auto;""><b>Definition:</b><br>A 'drex' is: Two circles that intersect at a single point. One of the circles contains the other. Additionally, a straight line passes through both of the circles' centers.<br><b>Question:</b><br> Is the image below a 'drex'? <br></p><img src='geoclidean\constraints\concept_lcc\test\out_far_1_fin.png' height='300px'>",,261238,,27,html-button-response,,
26,CB3,"['Yes', 'No']",concept_tll,TRUE,a triangle with two straight lines extending out of one of its corners,,,,geoclidean\constraints\concept_tll\test\in_1_fin.png,0.0-3.0-0.25,lem,0,5216,0.962206093,Yes,"<p style=""max-width: 60%;margin-left: auto; margin-right: auto;""><b>Definition:</b><br>A 'lem' is: a triangle with two straight lines extending out of one of its corners<br><b>Question:</b><br> Is the image below a 'lem'? <br></p><img src='geoclidean\constraints\concept_tll\test\in_1_fin.png' height='300px'>",,266456,,28,html-button-response,,
26,CB3,"['Yes', 'No']",concept_perp_bisector,TRUE,Two line segments that intersect at a 90 degree angle and are cut into two equal parts.,,,,geoclidean\elements\concept_perp_bisector\test\out_far_4_fin.png,0.0-3.0-0.26,wex,1,13836,0.962206093,No,"<p style=""max-width: 60%;margin-left: auto; margin-right: auto;""><b>Definition:</b><br>A 'wex' is: Two line segments that intersect at a 90 degree angle and are cut into two equal parts.<br><b>Question:</b><br> Is the image below a 'wex'? <br></p><img src='geoclidean\elements\concept_perp_bisector\test\out_far_4_fin.png' height='300px'>",,280293,,29,html-button-response,,
26,CB3,"['Yes', 'No']",concept_quadrilateral,TRUE,A four-sided closed shape.,,,,geoclidean\elements\concept_quadrilateral\test\out_far_3_fin.png,0.0-3.0-0.27,mox,1,7899,0.962206093,No,"<p style=""max-width: 60%;margin-left: auto; margin-right: auto;""><b>Definition:</b><br>A 'mox' is: A four-sided closed shape.<br><b>Question:</b><br> Is the image below a 'mox'? <br></p><img src='geoclidean\elements\concept_quadrilateral\test\out_far_3_fin.png' height='300px'>",,288192,,30,html-button-response,,
26,CB3,"['Yes', 'No']",concept_ang_bisector,TRUE,A line that divides an angle into two equal parts.,,,,geoclidean\elements\concept_ang_bisector\test\out_close_3_fin.png,0.0-3.0-0.28,zyl,1,4689,0.962206093,No,"<p style=""max-width: 60%;margin-left: auto; margin-right: auto;""><b>Definition:</b><br>A 'zyl' is: A line that divides an angle into two equal parts.<br><b>Question:</b><br> Is the image below a 'zyl'? <br></p><img src='geoclidean\elements\concept_ang_bisector\test\out_close_3_fin.png' height='300px'>",,292882,,31,html-button-response,,
26,CB3,"['Yes', 'No']",concept_parallel_l,TRUE,Parallel lines.,,,,geoclidean\elements\concept_parallel_l\test\out_close_4_fin.png,0.0-3.0-0.29,jeg,1,1834,0.962206093,No,"<p style=""max-width: 60%;margin-left: auto; margin-right: auto;""><b>Definition:</b><br>A 'jeg' is: Parallel lines.<br><b>Question:</b><br> Is the image below a 'jeg'? <br></p><img src='geoclidean\elements\concept_parallel_l\test\out_close_4_fin.png' height='300px'>",,294717,,32,html-button-response,,
26,CB3,"['Yes', 'No']",concept_llc,TRUE,A circle and two lines that meet. One of the lines extends from the circle's border and the other line passes through the circle's center.,,,,geoclidean\constraints\concept_llc\test\in_4_fin.png,0.0-3.0-0.30,krev,0,8747,0.962206093,Yes,"<p style=""max-width: 60%;margin-left: auto; margin-right: auto;""><b>Definition:</b><br>A 'krev' is: A circle and two lines that meet. One of the lines extends from the circle's border and the other line passes through the circle's center.<br><b>Question:</b><br> Is the image below a 'krev'? <br></p><img src='geoclidean\constraints\concept_llc\test\in_4_fin.png' height='300px'>",,303465,,33,html-button-response,,
26,CB3,"['Yes', 'No']",concept_tcl,TRUE,"A triangle with one of its corners located at the center of a circle. Additionally, a line extends from the triangle's corner located at the center of a circle to the side of the triangle that faces it.",,,,geoclidean\constraints\concept_tcl\test\out_far_4_fin.png,0.0-3.0-0.31,hol,1,19546,0.962206093,No,"<p style=""max-width: 60%;margin-left: auto; margin-right: auto;""><b>Definition:</b><br>A 'hol' is: A triangle with one of its corners located at the center of a circle. Additionally, a line extends from the triangle's corner located at the center of a circle to the side of the triangle that faces it.<br><b>Question:</b><br> Is the image below a 'hol'? <br></p><img src='geoclidean\constraints\concept_tcl\test\out_far_4_fin.png' height='300px'>",,323012,,34,html-button-response,,
26,CB3,"['Yes', 'No']",concept_radii,TRUE,A circle and 3 straight lines extending from the center of the circle to its border.,,,,geoclidean\elements\concept_radii\test\out_far_4_fin.png,0.0-3.0-0.32,dlep,1,8442,0.962206093,No,"<p style=""max-width: 60%;margin-left: auto; margin-right: auto;""><b>Definition:</b><br>A 'dlep' is: A circle and 3 straight lines extending from the center of the circle to its border.<br><b>Question:</b><br> Is the image below a 'dlep'? <br></p><img src='geoclidean\elements\concept_radii\test\out_far_4_fin.png' height='300px'>",,331455,,35,html-button-response,,
26,CB3,"['Yes', 'No']",concept_sixty_ang,TRUE,A sixty degree angle formed between two equal-length straight lines.,,,,geoclidean\elements\concept_sixty_ang\test\out_close_4_fin.png,0.0-3.0-0.33,wuj,1,10186,0.962206093,No,"<p style=""max-width: 60%;margin-left: auto; margin-right: auto;""><b>Definition:</b><br>A 'wuj' is: A sixty degree angle formed between two equal-length straight lines.<br><b>Question:</b><br> Is the image below a 'wuj'? <br></p><img src='geoclidean\elements\concept_sixty_ang\test\out_close_4_fin.png' height='300px'>",,341642,,36,html-button-response,,
26,CB3,"['Yes', 'No']",concept_clcl,TRUE,Two circles and two straight lines. One straight line extends from an intersection point between the circles to a circle's border. Another line extends from one circle's border to another circle's border.,,,,geoclidean\constraints\concept_clcl\test\out_far_4_fin.png,0.0-3.0-0.34,uvs,1,11089,0.962206093,No,"<p style=""max-width: 60%;margin-left: auto; margin-right: auto;""><b>Definition:</b><br>A 'uvs' is: Two circles and two straight lines. One straight line extends from an intersection point between the circles to a circle's border. Another line extends from one circle's border to another circle's border.<br><b>Question:</b><br> Is the image below a 'uvs'? <br></p><img src='geoclidean\constraints\concept_clcl\test\out_far_4_fin.png' height='300px'>",,352731,,37,html-button-response,,
26,CB3,"['Yes', 'No']",concept_cccc,TRUE,"Four intersecting circles. Among their points of intersection, one point is shared by all four circles.",,,,geoclidean\constraints\concept_cccc\test\in_2_fin.png,0.0-3.0-0.35,xip,0,7004,0.962206093,Yes,"<p style=""max-width: 60%;margin-left: auto; margin-right: auto;""><b>Definition:</b><br>A 'xip' is: Four intersecting circles. Among their points of intersection, one point is shared by all four circles.<br><b>Question:</b><br> Is the image below a 'xip'? <br></p><img src='geoclidean\constraints\concept_cccc\test\in_2_fin.png' height='300px'>",,359736,,38,html-button-response,,
26,CB3,"['Yes', 'No']",concept_rhomboid,TRUE,A four-sided shape with two pairs of parallel sides.,,,,geoclidean\elements\concept_rhomboid\test\out_close_2_fin.png,0.0-3.0-0.36,pif,1,3563,0.962206093,No,"<p style=""max-width: 60%;margin-left: auto; margin-right: auto;""><b>Definition:</b><br>A 'pif' is: A four-sided shape with two pairs of parallel sides.<br><b>Question:</b><br> Is the image below a 'pif'? <br></p><img src='geoclidean\elements\concept_rhomboid\test\out_close_2_fin.png' height='300px'>",,363300,,39,html-button-response,,
26,CB3,,,,,,,,,0.0-4.0,,,1637,0.962206093,,,,364937,,40,instructions,"[{'page_index': 0, 'viewing_time': 1637}]",
13,CB10,,,,,[],[],[],,0.0-0.0,,,,0.124361092,,,TRUE,897,FALSE,0,preload,,
13,CB10,,,,,,,,,0.0-1.0,,,6857,0.124361092,,,,7754,,1,instructions,"[{'page_index': 0, 'viewing_time': 6856}]",
13,CB10,,,,,,,,,0.0-2.0,,,45073,0.124361092,,,,52828,,2,instructions,"[{'page_index': 0, 'viewing_time': 8961}, {'page_index': 1, 'viewing_time': 30197}, {'page_index': 2, 'viewing_time': 5217}, {'page_index': 3, 'viewing_time': 698}]",
13,CB10,"['Yes', 'No']",concept_llll,TRUE,Four straight lines that intersect at a single point.,,,,geoclidean\constraints\concept_llll\test\out_far_4_fin.png,0.0-3.0-0.0,vop,1,15284,0.124361092,No,"<p style=""max-width: 60%;margin-left: auto; margin-right: auto;""><b>Definition:</b><br>A 'vop' is: Four straight lines that intersect at a single point.<br><b>Question:</b><br> Is the image below a 'vop'? <br></p><img src='geoclidean\constraints\concept_llll\test\out_far_4_fin.png' height='300px'>",,68113,,3,html-button-response,,
13,CB10,"['Yes', 'No']",concept_clcc,TRUE,A circle that contains a straight line whose endpoints are on the border of that circle. Two other circles that intersect with the first circle.,,,,geoclidean\constraints\concept_clcc\test\out_close_5_fin.png,0.0-3.0-0.1,krev,1,27263,0.124361092,No,"<p style=""max-width: 60%;margin-left: auto; margin-right: auto;""><b>Definition:</b><br>A 'krev' is: A circle that contains a straight line whose endpoints are on the border of that circle. Two other circles that intersect with the first circle.<br><b>Question:</b><br> Is the image below a 'krev'? <br></p><img src='geoclidean\constraints\concept_clcc\test\out_close_5_fin.png' height='300px'>",,95378,,4,html-button-response,,
13,CB10,"['Yes', 'No']",concept_lll,TRUE,A straight line with two other straight lines extending from it.,,,,geoclidean\constraints\concept_lll\test\in_2_fin.png,0.0-3.0-0.2,nif,0,7100,0.124361092,Yes,"<p style=""max-width: 60%;margin-left: auto; margin-right: auto;""><b>Definition:</b><br>A 'nif' is: A straight line with two other straight lines extending from it.<br><b>Question:</b><br> Is the image below a 'nif'? <br></p><img src='geoclidean\constraints\concept_lll\test\in_2_fin.png' height='300px'>",,102479,,5,html-button-response,,
13,CB10,"['Yes', 'No']",concept_right_ang_t,TRUE,A triangle with a 90 degree angle.,,,,geoclidean\elements\concept_right_ang_t\test\out_far_1_fin.png,0.0-3.0-0.3,tep,1,5306,0.124361092,No,"<p style=""max-width: 60%;margin-left: auto; margin-right: auto;""><b>Definition:</b><br>A 'tep' is: A triangle with a 90 degree angle.<br><b>Question:</b><br> Is the image below a 'tep'? <br></p><img src='geoclidean\elements\concept_right_ang_t\test\out_far_1_fin.png' height='300px'>",,107786,,6,html-button-response,,
13,CB10,"['Yes', 'No']",concept_tcl,TRUE,"A triangle with one of its corners located at the center of a circle. Additionally, a line extends from the triangle's corner located at the center of a circle to the side of the triangle that faces it.",,,,geoclidean\constraints\concept_tcl\test\out_far_1_fin.png,0.0-3.0-0.4,wuj,1,20543,0.124361092,No,"<p style=""max-width: 60%;margin-left: auto; margin-right: auto;""><b>Definition:</b><br>A 'wuj' is: A triangle with one of its corners located at the center of a circle. Additionally, a line extends from the triangle's corner located at the center of a circle to the side of the triangle that faces it.<br><b>Question:</b><br> Is the image below a 'wuj'? <br></p><img src='geoclidean\constraints\concept_tcl\test\out_far_1_fin.png' height='300px'>",,128330,,7,html-button-response,,
13,CB10,"['Yes', 'No']",concept_lllc,TRUE,"Two lines that either extend or pass through the center of a circle, and a third line that extends from one of the two lines.",,,,geoclidean\constraints\concept_lllc\test\in_4_fin.png,0.0-3.0-0.5,kab,0,6764,0.124361092,Yes,"<p style=""max-width: 60%;margin-left: auto; margin-right: auto;""><b>Definition:</b><br>A 'kab' is: Two lines that either extend or pass through the center of a circle, and a third line that extends from one of the two lines.<br><b>Question:</b><br> Is the image below a 'kab'? <br></p><img src='geoclidean\constraints\concept_lllc\test\in_4_fin.png' height='300px'>",,135095,,8,html-button-response,,
13,CB10,"['Yes', 'No']",concept_segment,TRUE,A circle and a straight line connecting two points on the circle's border.,,,,geoclidean\elements\concept_segment\test\out_far_4_fin.png,0.0-3.0-0.6,nuk,1,6531,0.124361092,No,"<p style=""max-width: 60%;margin-left: auto; margin-right: auto;""><b>Definition:</b><br>A 'nuk' is: A circle and a straight line connecting two points on the circle's border.<br><b>Question:</b><br> Is the image below a 'nuk'? <br></p><img src='geoclidean\elements\concept_segment\test\out_far_4_fin.png' height='300px'>",,141627,,9,html-button-response,,
13,CB10,"['Yes', 'No']",concept_lcc,TRUE,"Two circles that intersect at a single point. One of the circles contains the other. Additionally, a straight line passes through both of the circles' centers.",,,,geoclidean\constraints\concept_lcc\test\in_2_fin.png,0.0-3.0-0.7,uvs,0,33284,0.124361092,Yes,"<p style=""max-width: 60%;margin-left: auto; margin-right: auto;""><b>Definition:</b><br>A 'uvs' is: Two circles that intersect at a single point. One of the circles contains the other. Additionally, a straight line passes through both of the circles' centers.<br><b>Question:</b><br> Is the image below a 'uvs'? <br></p><img src='geoclidean\constraints\concept_lcc\test\in_2_fin.png' height='300px'>",,174912,,10,html-button-response,,
13,CB10,"['Yes', 'No']",concept_rhombus,TRUE,A four-sided shape with all sides having the same length.,,,,geoclidean\elements\concept_rhombus\test\out_close_1_fin.png,0.0-3.0-0.8,qiv,1,17700,0.124361092,No,"<p style=""max-width: 60%;margin-left: auto; margin-right: auto;""><b>Definition:</b><br>A 'qiv' is: A four-sided shape with all sides having the same length.<br><b>Question:</b><br> Is the image below a 'qiv'? <br></p><img src='geoclidean\elements\concept_rhombus\test\out_close_1_fin.png' height='300px'>",,192613,,11,html-button-response,,
13,CB10,"['Yes', 'No']",concept_eq_t,TRUE,A triangle with all of its sides having the same length.,,,,geoclidean\elements\concept_eq_t\test\out_far_5_fin.png,0.0-3.0-0.9,zup,1,9751,0.124361092,No,"<p style=""max-width: 60%;margin-left: auto; margin-right: auto;""><b>Definition:</b><br>A 'zup' is: A triangle with all of its sides having the same length.<br><b>Question:</b><br> Is the image below a 'zup'? <br></p><img src='geoclidean\elements\concept_eq_t\test\out_far_5_fin.png' height='300px'>",,202365,,12,html-button-response,,
13,CB10,"['Yes', 'No']",concept_cll,TRUE,A circle containing two lines. Each of the lines extends from one point on the circle's border to another point on the circle's border.,,,,geoclidean\constraints\concept_cll\test\in_2_fin.png,0.0-3.0-0.10,fom,0,6546,0.124361092,Yes,"<p style=""max-width: 60%;margin-left: auto; margin-right: auto;""><b>Definition:</b><br>A 'fom' is: A circle containing two lines. Each of the lines extends from one point on the circle's border to another point on the circle's border.<br><b>Question:</b><br> Is the image below a 'fom'? <br></p><img src='geoclidean\constraints\concept_cll\test\in_2_fin.png' height='300px'>",,208912,,13,html-button-response,,
13,CB10,"['Yes', 'No']",concept_tll,TRUE,a triangle with two straight lines extending out of one of its corners,,,,geoclidean\constraints\concept_tll\test\out_far_4_fin.png,0.0-3.0-0.11,wex,1,13952,0.124361092,No,"<p style=""max-width: 60%;margin-left: auto; margin-right: auto;""><b>Definition:</b><br>A 'wex' is: a triangle with two straight lines extending out of one of its corners<br><b>Question:</b><br> Is the image below a 'wex'? <br></p><img src='geoclidean\constraints\concept_tll\test\out_far_4_fin.png' height='300px'>",,222866,,14,html-button-response,,
13,CB10,"['Yes', 'No']",concept_ccc,TRUE,"Three intersecting circles. Among their points of intersection, one point is shared by all three circles.",,,,geoclidean\constraints\concept_ccc\test\out_close_1_fin.png,0.0-3.0-0.12,yulf,1,22744,0.124361092,No,"<p style=""max-width: 60%;margin-left: auto; margin-right: auto;""><b>Definition:</b><br>A 'yulf' is: Three intersecting circles. Among their points of intersection, one point is shared by all three circles.<br><b>Question:</b><br> Is the image below a 'yulf'? <br></p><img src='geoclidean\constraints\concept_ccc\test\out_close_1_fin.png' height='300px'>",,245611,,15,html-button-response,,
13,CB10,"['Yes', 'No']",concept_diameter,TRUE,A circle and a straight line that passes through the center of the circle and whose endpoints are on the circle's border.,,,,geoclidean\elements\concept_diameter\test\in_5_fin.png,0.0-3.0-0.13,drex,0,7966,0.124361092,Yes,"<p style=""max-width: 60%;margin-left: auto; margin-right: auto;""><b>Definition:</b><br>A 'drex' is: A circle and a straight line that passes through the center of the circle and whose endpoints are on the circle's border.<br><b>Question:</b><br> Is the image below a 'drex'? <br></p><img src='geoclidean\elements\concept_diameter\test\in_5_fin.png' height='300px'>",,253578,,16,html-button-response,,
13,CB10,"['Yes', 'No']",concept_ccl,TRUE,"Two intersecting circles. Additionally, a straight line that extends from one of the intersection points between the circles to one of the circles' border.",,,,geoclidean\constraints\concept_ccl\test\in_1_fin.png,0.0-3.0-0.14,jaf,0,11082,0.124361092,Yes,"<p style=""max-width: 60%;margin-left: auto; margin-right: auto;""><b>Definition:</b><br>A 'jaf' is: Two intersecting circles. Additionally, a straight line that extends from one of the intersection points between the circles to one of the circles' border.<br><b>Question:</b><br> Is the image below a 'jaf'? <br></p><img src='geoclidean\constraints\concept_ccl\test\in_1_fin.png' height='300px'>",,264661,,17,html-button-response,,
13,CB10,"['Yes', 'No']",concept_rhomboid,TRUE,A four-sided shape with two pairs of parallel sides.,,,,geoclidean\elements\concept_rhomboid\test\out_close_4_fin.png,0.0-3.0-0.15,zyl,1,8034,0.124361092,No,"<p style=""max-width: 60%;margin-left: auto; margin-right: auto;""><b>Definition:</b><br>A 'zyl' is: A four-sided shape with two pairs of parallel sides.<br><b>Question:</b><br> Is the image below a 'zyl'? <br></p><img src='geoclidean\elements\concept_rhomboid\test\out_close_4_fin.png' height='300px'>",,272697,,18,html-button-response,,
13,CB10,"['Yes', 'No']",concept_clcl,TRUE,Two circles and two straight lines. One straight line extends from an intersection point between the circles to a circle's border. Another line extends from one circle's border to another circle's border.,,,,geoclidean\constraints\concept_clcl\test\in_4_fin.png,0.0-3.0-0.16,pif,0,17862,0.124361092,Yes,"<p style=""max-width: 60%;margin-left: auto; margin-right: auto;""><b>Definition:</b><br>A 'pif' is: Two circles and two straight lines. One straight line extends from an intersection point between the circles to a circle's border. Another line extends from one circle's border to another circle's border.<br><b>Question:</b><br> Is the image below a 'pif'? <br></p><img src='geoclidean\constraints\concept_clcl\test\in_4_fin.png' height='300px'>",,290561,,19,html-button-response,,
13,CB10,"['Yes', 'No']",concept_cccc,FALSE,"Four intersecting circles. Among their points of intersection, one point is shared by all four circles.",,,,geoclidean\constraints\concept_cccc\test\in_4_fin.png,0.0-3.0-0.17,bvep,1,12848,0.124361092,Yes,"<p style=""max-width: 60%;margin-left: auto; margin-right: auto;""><b>Definition:</b><br>A 'bvep' is: Four intersecting circles. Among their points of intersection, one point is shared by all four circles.<br><b>Question:</b><br> Is the image below a 'bvep'? <br></p><img src='geoclidean\constraints\concept_cccc\test\in_4_fin.png' height='300px'>",,303410,,20,html-button-response,,
13,CB10,"['Yes', 'No']",concept_llc,TRUE,A circle and two lines that meet. One of the lines extends from the circle's border and the other line passes through the circle's center.,,,,geoclidean\constraints\concept_llc\test\in_3_fin.png,0.0-3.0-0.18,mox,0,9616,0.124361092,Yes,"<p style=""max-width: 60%;margin-left: auto; margin-right: auto;""><b>Definition:</b><br>A 'mox' is: A circle and two lines that meet. One of the lines extends from the circle's border and the other line passes through the circle's center.<br><b>Question:</b><br> Is the image below a 'mox'? <br></p><img src='geoclidean\constraints\concept_llc\test\in_3_fin.png' height='300px'>",,313028,,21,html-button-response,,
13,CB10,"['Yes', 'No']",concept_perp_bisector,TRUE,Two line segments that intersect at a 90 degree angle and are cut into two equal parts.,,,,geoclidean\elements\concept_perp_bisector\test\out_close_2_fin.png,0.0-3.0-0.19,fep,1,9984,0.124361092,No,"<p style=""max-width: 60%;margin-left: auto; margin-right: auto;""><b>Definition:</b><br>A 'fep' is: Two line segments that intersect at a 90 degree angle and are cut into two equal parts.<br><b>Question:</b><br> Is the image below a 'fep'? <br></p><img src='geoclidean\elements\concept_perp_bisector\test\out_close_2_fin.png' height='300px'>",,323013,,22,html-button-response,,
13,CB10,"['Yes', 'No']",concept_sixty_ang,FALSE,A sixty degree angle formed between two equal-length straight lines.,,,,geoclidean\elements\concept_sixty_ang\test\out_close_1_fin.png,0.0-3.0-0.20,dax,0,8797,0.124361092,No,"<p style=""max-width: 60%;margin-left: auto; margin-right: auto;""><b>Definition:</b><br>A 'dax' is: A sixty degree angle formed between two equal-length straight lines.<br><b>Question:</b><br> Is the image below a 'dax'? <br></p><img src='geoclidean\elements\concept_sixty_ang\test\out_close_1_fin.png' height='300px'>",,331811,,23,html-button-response,,
13,CB10,"['Yes', 'No']",concept_parallel_l,TRUE,Parallel lines.,,,,geoclidean\elements\concept_parallel_l\test\out_close_3_fin.png,0.0-3.0-0.21,bliv,1,8340,0.124361092,No,"<p style=""max-width: 60%;margin-left: auto; margin-right: auto;""><b>Definition:</b><br>A 'bliv' is: Parallel lines.<br><b>Question:</b><br> Is the image below a 'bliv'? <br></p><img src='geoclidean\elements\concept_parallel_l\test\out_close_3_fin.png' height='300px'>",,340153,,24,html-button-response,,
13,CB10,"['Yes', 'No']",concept_cccl,TRUE,"Three intersecting circles. Among their points of intersection, one point is shared by all three circles. Additionally, one of the circles contains a line whose endpoints are on the circle's border.",,,,geoclidean\constraints\concept_cccl\test\in_4_fin.png,0.0-3.0-0.22,bim,0,16489,0.124361092,Yes,"<p style=""max-width: 60%;margin-left: auto; margin-right: auto;""><b>Definition:</b><br>A 'bim' is: Three intersecting circles. Among their points of intersection, one point is shared by all three circles. Additionally, one of the circles contains a line whose endpoints are on the circle's border.<br><b>Question:</b><br> Is the image below a 'bim'? <br></p><img src='geoclidean\constraints\concept_cccl\test\in_4_fin.png' height='300px'>",,356642,,25,html-button-response,,
13,CB10,"['Yes', 'No']",concept_tcc,TRUE,"Two circles that have the same center, one completely inside the other. Additionally, a triangle with a corner located at the center of the circles.",,,,geoclidean\constraints\concept_tcc\test\in_5_fin.png,0.0-3.0-0.23,jeex,0,13621,0.124361092,Yes,"<p style=""max-width: 60%;margin-left: auto; margin-right: auto;""><b>Definition:</b><br>A 'jeex' is: Two circles that have the same center, one completely inside the other. Additionally, a triangle with a corner located at the center of the circles.<br><b>Question:</b><br> Is the image below a 'jeex'? <br></p><img src='geoclidean\constraints\concept_tcc\test\in_5_fin.png' height='300px'>",,370264,,26,html-button-response,,
13,CB10,"['Yes', 'No']",concept_llt,TRUE,"A triangle, as well as two additional straight lines that intersect at one of its corners.",,,,geoclidean\constraints\concept_llt\test\out_far_3_fin.png,0.0-3.0-0.24,vix,1,16064,0.124361092,No,"<p style=""max-width: 60%;margin-left: auto; margin-right: auto;""><b>Definition:</b><br>A 'vix' is: A triangle, as well as two additional straight lines that intersect at one of its corners.<br><b>Question:</b><br> Is the image below a 'vix'? <br></p><img src='geoclidean\constraints\concept_llt\test\out_far_3_fin.png' height='300px'>",,386329,,27,html-button-response,,
13,CB10,"['Yes', 'No']",concept_square,TRUE,A square.,,,,geoclidean\elements\concept_square\test\in_3_fin.png,0.0-3.0-0.25,hix,0,2129,0.124361092,Yes,"<p style=""max-width: 60%;margin-left: auto; margin-right: auto;""><b>Definition:</b><br>A 'hix' is: A square.<br><b>Question:</b><br> Is the image below a 'hix'? <br></p><img src='geoclidean\elements\concept_square\test\in_3_fin.png' height='300px'>",,388459,,28,html-button-response,,
13,CB10,"['Yes', 'No']",concept_cct,TRUE,"Two intersecting circles. Additionally, there is a triangle with two corners located at the intersection points between the circles and a third corner on one of the circles' border.",,,,geoclidean\constraints\concept_cct\test\out_far_3_fin.png,0.0-3.0-0.26,vov,1,26652,0.124361092,No,"<p style=""max-width: 60%;margin-left: auto; margin-right: auto;""><b>Definition:</b><br>A 'vov' is: Two intersecting circles. Additionally, there is a triangle with two corners located at the intersection points between the circles and a third corner on one of the circles' border.<br><b>Question:</b><br> Is the image below a 'vov'? <br></p><img src='geoclidean\constraints\concept_cct\test\out_far_3_fin.png' height='300px'>",,415112,,29,html-button-response,,
13,CB10,"['Yes', 'No']",concept_angle,TRUE,An angle formed between two lines.,,,,geoclidean\elements\concept_angle\test\in_2_fin.png,0.0-3.0-0.27,hol,0,4764,0.124361092,Yes,"<p style=""max-width: 60%;margin-left: auto; margin-right: auto;""><b>Definition:</b><br>A 'hol' is: An angle formed between two lines.<br><b>Question:</b><br> Is the image below a 'hol'? <br></p><img src='geoclidean\elements\concept_angle\test\in_2_fin.png' height='300px'>",,419877,,30,html-button-response,,
13,CB10,"['Yes', 'No']",concept_clt,TRUE,"A circle containing a triangle whose corners are all on the circle's border. Additionally, a straight line extends from one of the triangle's corners.",,,,geoclidean\constraints\concept_clt\test\in_3_fin.png,0.0-3.0-0.28,dlep,0,6666,0.124361092,Yes,"<p style=""max-width: 60%;margin-left: auto; margin-right: auto;""><b>Definition:</b><br>A 'dlep' is: A circle containing a triangle whose corners are all on the circle's border. Additionally, a straight line extends from one of the triangle's corners.<br><b>Question:</b><br> Is the image below a 'dlep'? <br></p><img src='geoclidean\constraints\concept_clt\test\in_3_fin.png' height='300px'>",,426544,,31,html-button-response,,
13,CB10,"['Yes', 'No']",concept_clll,TRUE,A circle and three lines. Line 1 extends from the circle's border. Line 2 extends from line 1. Line 3 extends from line 2 to the intersection point between the circle and line 1.,,,,geoclidean\constraints\concept_clll\test\out_far_2_fin.png,0.0-3.0-0.29,zim,1,14215,0.124361092,No,"<p style=""max-width: 60%;margin-left: auto; margin-right: auto;""><b>Definition:</b><br>A 'zim' is: A circle and three lines. Line 1 extends from the circle's border. Line 2 extends from line 1. Line 3 extends from line 2 to the intersection point between the circle and line 1.<br><b>Question:</b><br> Is the image below a 'zim'? <br></p><img src='geoclidean\constraints\concept_clll\test\out_far_2_fin.png' height='300px'>",,440760,,32,html-button-response,,
13,CB10,"['Yes', 'No']",concept_ang_bisector,TRUE,A line that divides an angle into two equal parts.,,,,geoclidean\elements\concept_ang_bisector\test\out_close_2_fin.png,0.0-3.0-0.30,jeg,1,33366,0.124361092,No,"<p style=""max-width: 60%;margin-left: auto; margin-right: auto;""><b>Definition:</b><br>A 'jeg' is: A line that divides an angle into two equal parts.<br><b>Question:</b><br> Is the image below a 'jeg'? <br></p><img src='geoclidean\elements\concept_ang_bisector\test\out_close_2_fin.png' height='300px'>",,474128,,33,html-button-response,,
13,CB10,"['Yes', 'No']",concept_llcc,TRUE,Two circles and two lines that all intersect at a single location.,,,,geoclidean\constraints\concept_llcc\test\out_far_2_fin.png,0.0-3.0-0.31,wunf,1,22396,0.124361092,No,"<p style=""max-width: 60%;margin-left: auto; margin-right: auto;""><b>Definition:</b><br>A 'wunf' is: Two circles and two lines that all intersect at a single location.<br><b>Question:</b><br> Is the image below a 'wunf'? <br></p><img src='geoclidean\constraints\concept_llcc\test\out_far_2_fin.png' height='300px'>",,496524,,34,html-button-response,,
13,CB10,"['Yes', 'No']",concept_rectilinear,TRUE,A closed shape composed of straight lines.,,,,geoclidean\elements\concept_rectilinear\test\out_close_3_fin.png,0.0-3.0-0.32,honv,1,7720,0.124361092,No,"<p style=""max-width: 60%;margin-left: auto; margin-right: auto;""><b>Definition:</b><br>A 'honv' is: A closed shape composed of straight lines.<br><b>Question:</b><br> Is the image below a 'honv'? <br></p><img src='geoclidean\elements\concept_rectilinear\test\out_close_3_fin.png' height='300px'>",,504245,,35,html-button-response,,
13,CB10,"['Yes', 'No']",concept_triangle,TRUE,A triangle.,,,,geoclidean\elements\concept_triangle\test\in_5_fin.png,0.0-3.0-0.33,lem,0,2014,0.124361092,Yes,"<p style=""max-width: 60%;margin-left: auto; margin-right: auto;""><b>Definition:</b><br>A 'lem' is: A triangle.<br><b>Question:</b><br> Is the image below a 'lem'? <br></p><img src='geoclidean\elements\concept_triangle\test\in_5_fin.png' height='300px'>",,506259,,36,html-button-response,,
13,CB10,"['Yes', 'No']",concept_quadrilateral,FALSE,A four-sided closed shape.,,,,geoclidean\elements\concept_quadrilateral\test\out_close_5_fin.png,0.0-3.0-0.34,frolp,0,9715,0.124361092,No,"<p style=""max-width: 60%;margin-left: auto; margin-right: auto;""><b>Definition:</b><br>A 'frolp' is: A four-sided closed shape.<br><b>Question:</b><br> Is the image below a 'frolp'? <br></p><img src='geoclidean\elements\concept_quadrilateral\test\out_close_5_fin.png' height='300px'>",,515976,,37,html-button-response,,
13,CB10,"['Yes', 'No']",concept_oblong,TRUE,A rectangle.,,,,geoclidean\elements\concept_oblong\test\out_far_4_fin.png,0.0-3.0-0.35,muxl,1,2433,0.124361092,No,"<p style=""max-width: 60%;margin-left: auto; margin-right: auto;""><b>Definition:</b><br>A 'muxl' is: A rectangle.<br><b>Question:</b><br> Is the image below a 'muxl'? <br></p><img src='geoclidean\elements\concept_oblong\test\out_far_4_fin.png' height='300px'>",,518410,,38,html-button-response,,
13,CB10,"['Yes', 'No']",concept_radii,TRUE,A circle and 3 straight lines extending from the center of the circle to its border.,,,,geoclidean\elements\concept_radii\test\out_far_1_fin.png,0.0-3.0-0.36,xip,1,9250,0.124361092,No,"<p style=""max-width: 60%;margin-left: auto; margin-right: auto;""><b>Definition:</b><br>A 'xip' is: A circle and 3 straight lines extending from the center of the circle to its border.<br><b>Question:</b><br> Is the image below a 'xip'? <br></p><img src='geoclidean\elements\concept_radii\test\out_far_1_fin.png' height='300px'>",,527660,,39,html-button-response,,
13,CB10,,,,,,,,,0.0-4.0,,,1715,0.124361092,,,,529376,,40,instructions,"[{'page_index': 0, 'viewing_time': 1715}]",
11,CB6,,,,,[],[],[],,0.0-0.0,,,,0.095243881,,,TRUE,1037,FALSE,0,preload,,
11,CB6,,,,,,,,,0.0-1.0,,,30825,0.095243881,,,,31862,,1,instructions,"[{'page_index': 0, 'viewing_time': 30824}]",
11,CB6,,,,,,,,,0.0-2.0,,,12102,0.095243881,,,,43965,,2,instructions,"[{'page_index': 0, 'viewing_time': 1782}, {'page_index': 1, 'viewing_time': 3385}, {'page_index': 2, 'viewing_time': 5647}, {'page_index': 3, 'viewing_time': 1288}]",
11,CB6,"['No', 'Yes']",concept_quadrilateral,FALSE,A quadrilateral.,,,,geoclidean\elements\concept_quadrilateral\test\in_2_fin.png,0.0-3.0-0.0,nif,0,8480,0.095243881,Yes,"<p style=""max-width: 60%;margin-left: auto; margin-right: auto;""><b>Definition:</b><br>A 'nif' is: A quadrilateral.<br><b>Question:</b><br> Is the image below a 'nif'? <br></p><img src='geoclidean\elements\concept_quadrilateral\test\in_2_fin.png' height='300px'>",,52446,,3,html-button-response,,
11,CB6,"['No', 'Yes']",concept_rectilinear,TRUE,A closed shape composed of straight lines.,,,,geoclidean\elements\concept_rectilinear\test\in_1_fin.png,0.0-3.0-0.1,jeex,1,5095,0.095243881,Yes,"<p style=""max-width: 60%;margin-left: auto; margin-right: auto;""><b>Definition:</b><br>A 'jeex' is: A closed shape composed of straight lines.<br><b>Question:</b><br> Is the image below a 'jeex'? <br></p><img src='geoclidean\elements\concept_rectilinear\test\in_1_fin.png' height='300px'>",,57542,,4,html-button-response,,
11,CB6,"['No', 'Yes']",concept_rhombus,TRUE,A rhombus.,,,,geoclidean\elements\concept_rhombus\test\in_2_fin.png,0.0-3.0-0.2,bliv,1,2703,0.095243881,Yes,"<p style=""max-width: 60%;margin-left: auto; margin-right: auto;""><b>Definition:</b><br>A 'bliv' is: A rhombus.<br><b>Question:</b><br> Is the image below a 'bliv'? <br></p><img src='geoclidean\elements\concept_rhombus\test\in_2_fin.png' height='300px'>",,60246,,5,html-button-response,,
11,CB6,"['No', 'Yes']",concept_square,TRUE,A square.,,,,geoclidean\elements\concept_square\test\out_far_3_fin.png,0.0-3.0-0.3,hol,0,2320,0.095243881,No,"<p style=""max-width: 60%;margin-left: auto; margin-right: auto;""><b>Definition:</b><br>A 'hol' is: A square.<br><b>Question:</b><br> Is the image below a 'hol'? <br></p><img src='geoclidean\elements\concept_square\test\out_far_3_fin.png' height='300px'>",,62566,,6,html-button-response,,
11,CB6,"['No', 'Yes']",concept_angle,TRUE,An angle formed between two lines.,,,,geoclidean\elements\concept_angle\test\in_1_fin.png,0.0-3.0-0.4,zup,1,4128,0.095243881,Yes,"<p style=""max-width: 60%;margin-left: auto; margin-right: auto;""><b>Definition:</b><br>A 'zup' is: An angle formed between two lines.<br><b>Question:</b><br> Is the image below a 'zup'? <br></p><img src='geoclidean\elements\concept_angle\test\in_1_fin.png' height='300px'>",,66694,,7,html-button-response,,
11,CB6,"['No', 'Yes']",concept_cccc,TRUE,"Four intersecting circles. Among their points of intersection, one point is shared by all four circles.",,,,geoclidean\constraints\concept_cccc\test\out_close_1_fin.png,0.0-3.0-0.5,fom,0,14111,0.095243881,No,"<p style=""max-width: 60%;margin-left: auto; margin-right: auto;""><b>Definition:</b><br>A 'fom' is: Four intersecting circles. Among their points of intersection, one point is shared by all four circles.<br><b>Question:</b><br> Is the image below a 'fom'? <br></p><img src='geoclidean\constraints\concept_cccc\test\out_close_1_fin.png' height='300px'>",,80806,,8,html-button-response,,
11,CB6,"['No', 'Yes']",concept_lcc,TRUE,"Two circles that intersect at a single point. One of the circles contains the other. Additionally, a straight line passes through both of the circles' centers.",,,,geoclidean\constraints\concept_lcc\test\out_close_2_fin.png,0.0-3.0-0.6,fep,0,17943,0.095243881,No,"<p style=""max-width: 60%;margin-left: auto; margin-right: auto;""><b>Definition:</b><br>A 'fep' is: Two circles that intersect at a single point. One of the circles contains the other. Additionally, a straight line passes through both of the circles' centers.<br><b>Question:</b><br> Is the image below a 'fep'? <br></p><img src='geoclidean\constraints\concept_lcc\test\out_close_2_fin.png' height='300px'>",,98750,,9,html-button-response,,
11,CB6,"['No', 'Yes']",concept_triangle,TRUE,A triangle.,,,,geoclidean\elements\concept_triangle\test\in_3_fin.png,0.0-3.0-0.7,xip,1,2086,0.095243881,Yes,"<p style=""max-width: 60%;margin-left: auto; margin-right: auto;""><b>Definition:</b><br>A 'xip' is: A triangle.<br><b>Question:</b><br> Is the image below a 'xip'? <br></p><img src='geoclidean\elements\concept_triangle\test\in_3_fin.png' height='300px'>",,100838,,10,html-button-response,,
11,CB6,"['No', 'Yes']",concept_sixty_ang,TRUE,A sixty degree angle formed between two equal-length straight lines.,,,,geoclidean\elements\concept_sixty_ang\test\out_far_3_fin.png,0.0-3.0-0.8,nuk,0,4230,0.095243881,No,"<p style=""max-width: 60%;margin-left: auto; margin-right: auto;""><b>Definition:</b><br>A 'nuk' is: A sixty degree angle formed between two equal-length straight lines.<br><b>Question:</b><br> Is the image below a 'nuk'? <br></p><img src='geoclidean\elements\concept_sixty_ang\test\out_far_3_fin.png' height='300px'>",,105069,,11,html-button-response,,
11,CB6,"['No', 'Yes']",concept_llll,TRUE,Four straight lines that intersect at a single point.,,,,geoclidean\constraints\concept_llll\test\out_close_5_fin.png,0.0-3.0-0.9,vop,0,7847,0.095243881,No,"<p style=""max-width: 60%;margin-left: auto; margin-right: auto;""><b>Definition:</b><br>A 'vop' is: Four straight lines that intersect at a single point.<br><b>Question:</b><br> Is the image below a 'vop'? <br></p><img src='geoclidean\constraints\concept_llll\test\out_close_5_fin.png' height='300px'>",,112918,,12,html-button-response,,
11,CB6,"['No', 'Yes']",concept_perp_bisector,TRUE,Two line segments that intersect at a 90 degree angle and are cut into two equal parts.,,,,geoclidean\elements\concept_perp_bisector\test\out_far_2_fin.png,0.0-3.0-0.10,bvep,0,3702,0.095243881,No,"<p style=""max-width: 60%;margin-left: auto; margin-right: auto;""><b>Definition:</b><br>A 'bvep' is: Two line segments that intersect at a 90 degree angle and are cut into two equal parts.<br><b>Question:</b><br> Is the image below a 'bvep'? <br></p><img src='geoclidean\elements\concept_perp_bisector\test\out_far_2_fin.png' height='300px'>",,116621,,13,html-button-response,,
11,CB6,"['No', 'Yes']",concept_parallel_l,TRUE,Parallel lines.,,,,geoclidean\elements\concept_parallel_l\test\out_close_5_fin.png,0.0-3.0-0.11,krev,0,1488,0.095243881,No,"<p style=""max-width: 60%;margin-left: auto; margin-right: auto;""><b>Definition:</b><br>A 'krev' is: Parallel lines.<br><b>Question:</b><br> Is the image below a 'krev'? <br></p><img src='geoclidean\elements\concept_parallel_l\test\out_close_5_fin.png' height='300px'>",,118110,,14,html-button-response,,
11,CB6,"['No', 'Yes']",concept_cct,TRUE,"Two intersecting circles. Additionally, there is a triangle with two corners located at the intersection points between the circles and a third corner on one of the circles' circumference.",,,,geoclidean\constraints\concept_cct\test\in_2_fin.png,0.0-3.0-0.12,bim,1,54013,0.095243881,Yes,"<p style=""max-width: 60%;margin-left: auto; margin-right: auto;""><b>Definition:</b><br>A 'bim' is: Two intersecting circles. Additionally, there is a triangle with two corners located at the intersection points between the circles and a third corner on one of the circles' circumference.<br><b>Question:</b><br> Is the image below a 'bim'? <br></p><img src='geoclidean\constraints\concept_cct\test\in_2_fin.png' height='300px'>",,172125,,15,html-button-response,,
11,CB6,"['No', 'Yes']",concept_clcc,TRUE,A circle that contains a straight line whose endpoints are on the circumference of that circle. Two other circles that intersect with the first circle.,,,,geoclidean\constraints\concept_clcc\test\out_close_3_fin.png,0.0-3.0-0.13,mox,0,15583,0.095243881,No,"<p style=""max-width: 60%;margin-left: auto; margin-right: auto;""><b>Definition:</b><br>A 'mox' is: A circle that contains a straight line whose endpoints are on the circumference of that circle. Two other circles that intersect with the first circle.<br><b>Question:</b><br> Is the image below a 'mox'? <br></p><img src='geoclidean\constraints\concept_clcc\test\out_close_3_fin.png' height='300px'>",,187705,,16,html-button-response,,
11,CB6,"['No', 'Yes']",concept_clt,TRUE,"A circle containing a triangle whose corners are all on the circle's circumference. Additionally, a straight line extends from one of the triangle's corners.",,,,geoclidean\constraints\concept_clt\test\out_close_4_fin.png,0.0-3.0-0.14,muxl,0,17503,0.095243881,No,"<p style=""max-width: 60%;margin-left: auto; margin-right: auto;""><b>Definition:</b><br>A 'muxl' is: A circle containing a triangle whose corners are all on the circle's circumference. Additionally, a straight line extends from one of the triangle's corners.<br><b>Question:</b><br> Is the image below a 'muxl'? <br></p><img src='geoclidean\constraints\concept_clt\test\out_close_4_fin.png' height='300px'>",,205209,,17,html-button-response,,
